sole_id,timestamp,accel_x,accel_y,accel_z,gyro_x,gyro_y,gyro_z,magn_x,magn_y,magn_z,pressure_01,pressure_02,pressure_03,pressure_04,pressure_05,pressure_06,pressure_07,pressure_08,pressure_09,pressure_10,pressure_11,pressure_12,corrupt,transition,concrete
1,1774544967792,-914,425,9968,-102625,-208915,51312,0,0,0,196,125,153,262,121,222,478,401,267,372,432,113,0,,
1,1774544967808,-942,449,9968,-107512,-194255,52534,0,0,0,192,128,148,264,124,224,477,410,269,366,441,97,0,,
2,1774544967808,603,397,10007,-145385,-31764,-10995,0,0,0,166,160,62,216,182,115,424,474,96,339,432,29,0,,
1,1774544967824,-981,483,9954,-97738,-179594,47647,0,0,0,197,130,148,278,127,222,494,430,272,370,448,83,0,,
2,1774544967824,612,425,9983,-146607,-24434,-7330,0,0,0,161,164,57,207,184,114,420,475,94,332,433,33,0,,
1,1774544967840,-995,521,9930,-75747,-153938,41538,0,0,0,203,129,146,282,127,222,478,425,274,372,444,83,0,,
2,1774544967840,593,454,9992,-155159,-12217,-7330,0,0,0,162,169,58,202,177,111,407,482,84,327,441,30,0,,
1,1774544967856,-995,545,9911,-43982,-123394,35430,0,0,0,199,129,144,274,130,225,438,390,275,368,439,85,0,,
2,1774544967856,593,483,9987,-140499,-10995,-7330,0,0,0,162,155,55,211,171,113,427,474,98,333,436,35,0,,
1,1774544967872,-990,545,9920,-8552,-100181,30543,0,0,0,195,128,142,278,128,225,495,436,270,363,450,84,0,,
2,1774544967872,607,512,9968,-98960,-20769,-6108,0,0,0,157,164,51,223,195,116,425,473,98,347,436,35,0,,
1,1774544967888,-990,540,9935,24434,-80634,26878,0,0,0,196,130,144,278,133,229,492,436,270,363,453,84,0,,
2,1774544967888,626,516,9983,-62308,-29321,-6108,0,0,0,161,158,55,213,180,117,427,466,106,354,433,28,0,,
1,1774544967904,-985,540,9940,54977,-62308,21991,0,0,0,200,135,147,283,133,231,492,439,271,367,455,86,0,,
2,1774544967904,631,521,10007,-47647,-31764,-6108,0,0,0,159,149,53,213,170,118,428,475,102,368,441,40,0,,
1,1774544967920,-976,531,9930,85521,-39095,18325,0,0,0,200,135,153,282,132,235,499,443,275,370,456,89,0,,
2,1774544967920,626,526,10007,-41538,-31764,-3665,0,0,0,159,150,53,212,172,115,429,474,108,351,438,36,0,,
1,1774544967936,-971,507,9954,108734,-19547,17104,0,0,0,200,136,155,273,132,232,490,437,269,371,459,92,0,,
2,1774544967936,626,526,10007,-28099,-34208,-3665,0,0,0,158,161,54,206,178,113,418,486,110,339,447,28,0,,
1,1774544967952,-957,478,9987,118507,-13439,15882,0,0,0,200,135,157,276,131,229,477,420,270,371,468,95,0,,
2,1774544967952,631,540,10007,-15882,-36651,-2443,0,0,0,162,157,57,210,173,113,425,487,107,354,451,29,0,,
1,1774544967968,-942,469,9992,124616,-9773,14660,0,0,0,202,133,164,269,124,226,480,389,270,375,460,114,0,x,
2,1774544967968,641,555,9992,-1221,-40317,0,0,0,0,160,150,59,214,172,116,428,483,106,355,452,33,0,x,
1,1774544967984,-942,469,9968,151494,0,14660,0,0,0,200,128,199,265,118,245,486,378,282,381,435,131,0,,
2,1774544967984,626,545,9968,23212,-40317,2443,0,0,0,156,150,60,218,178,121,425,486,106,353,454,34,0,,
1,1774544968000,-942,454,9978,196698,15882,15882,0,0,0,208,136,210,273,124,251,485,357,289,375,400,133,0,,
2,1774544968000,617,540,9964,48869,-36651,3665,0,0,0,161,149,61,227,175,125,433,496,111,368,462,41,0,,
1,1774544968016,-942,430,10040,255341,23212,17104,0,0,0,223,150,189,283,133,243,479,300,289,359,341,127,0,,
2,1774544968016,617,540,9964,75747,-30543,9773,0,0,0,166,143,64,231,169,127,446,507,117,386,474,46,0,,
1,1774544968032,-976,416,10155,335975,2443,26878,0,0,0,217,150,188,280,136,256,442,239,297,329,244,137,0,,
2,1774544968032,622,526,9973,90408,-24434,14660,0,0,0,160,142,64,233,176,129,437,523,116,398,498,41,0,,
1,1774544968048,-1086,425,10447,486248,-51312,57421,0,0,0,181,151,189,256,148,264,357,196,306,247,177,160,0,,
2,1774544968048,636,526,9944,100181,-25656,23212,0,0,0,161,141,62,246,178,135,438,540,115,408,520,43,0,,
1,1774544968064,-1397,502,11261,779464,-81855,117286,0,0,0,177,150,189,257,153,268,336,161,312,183,159,148,0,,
2,1774544968064,626,502,9983,118507,-29321,32986,0,0,0,180,129,75,259,159,155,487,547,129,425,517,44,0,,
1,1774544968080,-2536,957,14161,1439198,249233,277332,0,0,0,180,159,167,258,153,253,310,156,288,183,155,136,0,,
2,1774544968080,588,435,10107,113620,-23212,35430,0,0,0,185,124,88,262,150,168,507,563,137,448,529,44,0,,
1,1774544968096,-3043,1206,15927,2182010,636521,558330,0,0,0,178,167,178,247,154,250,301,158,281,172,157,125,0,,
2,1774544968096,579,406,10160,70860,-4886,23212,0,0,0,184,131,62,268,154,135,505,573,119,441,541,36,0,,
1,1774544968112,-2392,717,14989,2709798,856433,790459,0,0,0,183,186,176,238,185,234,308,170,268,174,164,100,0,,
2,1774544968112,598,416,10107,35430,3665,7330,0,0,0,186,150,67,273,154,139,500,568,119,445,538,45,0,,
1,1774544968128,-1789,1115,13697,2803871,1119105,786794,0,0,0,191,181,175,239,162,228,309,167,266,170,164,97,0,,
2,1774544968128,612,449,10045,29321,2443,-6108,0,0,0,191,126,68,274,150,138,519,570,128,446,534,43,0,,
1,1774544968144,-2881,5422,12481,2359161,1766622,416610,0,0,0,186,188,201,235,168,240,312,175,276,172,170,101,0,,
2,1774544968144,626,469,10016,37873,-2443,-18325,0,0,0,196,128,69,275,144,135,547,580,121,448,531,32,0,,
1,1774544968160,-7762,11610,9729,1331686,2124589,-342084,0,0,0,185,194,230,232,184,255,313,190,283,201,182,123,0,,
2,1774544968160,650,469,10011,53756,-8552,-28099,0,0,0,197,124,65,279,144,134,561,584,122,446,526,27,0,,
1,1774544968176,-10725,14185,6700,519235,1414763,-847880,0,0,0,185,193,240,232,188,260,311,180,284,194,175,122,0,,
2,1774544968176,660,459,10007,70860,-20769,-34208,0,0,0,195,124,67,280,145,135,561,584,123,438,526,32,0,,
1,1774544968192,-9662,14276,5005,0,65973,-1040914,0,0,0,183,185,234,230,175,256,304,175,282,170,177,115,0,,
2,1774544968192,665,440,10011,81855,-35430,-39095,0,0,0,196,127,65,280,148,130,563,579,118,433,522,27,0,,
1,1774544968208,-6489,13740,5589,-548556,-790459,-1169196,0,0,0,179,184,227,227,174,251,297,178,278,157,174,112,0,,
2,1774544968208,679,421,10026,80634,-52534,-43982,0,0,0,204,127,68,281,146,133,563,571,119,442,516,31,0,,
1,1774544968224,-4469,12605,6795,-1125213,-1133765,-1332907,0,0,0,178,183,218,227,175,247,294,171,275,150,161,108,0,,
2,1774544968224,689,402,10021,73303,-75747,-47647,0,0,0,221,126,87,279,139,144,563,571,139,446,516,40,0,,
1,1774544968240,-3024,10303,8499,-1612684,-1324355,-1488067,0,0,0,176,179,216,229,167,249,293,163,277,144,158,107,0,,
2,1774544968240,684,397,10016,69638,-98960,-48869,0,0,0,222,135,118,272,142,159,557,574,153,441,519,51,0,,
1,1774544968256,-1799,8083,10107,-1910786,-1455080,-1583362,0,0,0,171,180,230,227,170,254,293,158,287,140,156,107,0,,
2,1774544968256,689,406,9973,80634,-125838,-40317,0,0,0,211,140,172,273,144,184,556,572,168,445,520,69,0,,
1,1774544968272,-775,5996,11552,-2141693,-1469741,-1599245,0,0,0,173,174,222,231,154,246,297,153,296,139,146,100,0,,
2,1774544968272,674,406,9964,118507,-147829,-20769,0,0,0,211,146,213,290,153,220,560,560,195,451,512,81,0,,
1,1774544968288,-416,4029,12557,-2280970,-1345125,-1447750,0,0,0,171,170,210,226,157,235,293,161,298,125,134,94,0,,
2,1774544968288,607,354,10031,160046,-149051,-4886,0,0,0,220,166,208,310,185,241,555,534,218,445,497,76,0,,
1,1774544968304,-291,2196,13247,-2258979,-1235169,-1204626,0,0,0,196,170,218,244,189,235,316,153,297,150,135,99,0,,
2,1774544968304,555,306,10074,168598,-124616,-4886,0,0,0,223,176,234,323,212,244,557,483,242,442,470,77,0,,
1,1774544968320,-138,382,13534,-1944994,-1084896,-960280,0,0,0,168,167,203,222,160,227,284,148,289,116,127,91,0,,
2,1774544968320,564,301,10078,171042,-111177,-8552,0,0,0,237,191,280,327,236,280,566,431,274,438,428,94,0,,
1,1774544968336,-301,-1263,13452,-1447750,-879645,-821002,0,0,0,161,171,200,206,161,222,273,162,284,102,130,87,0,,
2,1774544968336,598,287,10078,194255,-111177,-14660,0,0,0,262,203,248,366,262,286,565,420,286,424,391,96,0,,
1,1774544968352,-961,-2598,13117,-862541,-702495,-780685,0,0,0,163,166,205,211,151,235,270,149,263,104,121,92,0,,
2,1774544968352,598,239,10083,219911,-102625,-20769,0,0,0,271,211,216,409,272,310,565,372,302,375,352,140,0,,
1,1774544968368,-1502,-3211,12888,-477696,-614530,-795346,0,0,0,163,196,203,207,192,235,269,160,251,104,130,92,0,,
2,1774544968368,579,205,10102,239459,-78190,-30543,0,0,0,297,197,278,403,286,333,560,313,335,326,270,179,0,,
1,1774544968384,-1794,-3345,12715,-448375,-526565,-857654,0,0,0,166,196,193,211,191,230,270,159,250,104,124,90,0,,
2,1774544968384,579,157,10141,259006,-26878,-42760,0,0,0,328,218,256,425,288,330,543,216,323,302,193,189,0,,
1,1774544968400,-2120,-3350,12371,-860098,-513126,-955393,0,0,0,167,175,188,215,158,229,271,144,248,102,115,88,0,,
2,1774544968400,603,119,10184,313984,28099,-58643,0,0,0,324,216,312,429,307,418,531,164,362,267,133,244,0,,
1,1774544968416,-2689,-3776,11596,-1634675,-717155,-1032362,0,0,0,166,168,188,214,147,229,272,138,249,101,112,87,0,,
2,1774544968416,588,76,10318,448375,97738,-70860,0,0,0,319,224,252,444,348,407,496,123,371,212,97,235,0,,
1,1774544968432,-2986,-4838,10873,-2289522,-951728,-1040914,0,0,0,168,170,186,213,147,224,273,139,257,103,108,84,0,,
2,1774544968432,579,33,10562,590095,202807,-76969,0,0,0,314,228,173,463,349,389,462,92,381,188,77,254,0,,
1,1774544968448,-2684,-7049,10193,-2494773,-1112996,-935845,0,0,0,169,172,183,214,150,216,273,138,266,103,107,79,0,,
2,1774544968448,622,-14,10830,753807,305432,-79412,0,0,0,317,270,115,468,346,418,425,79,395,177,74,271,0,,
1,1774544968464,-1622,-9638,9337,-2207666,-1291369,-712268,0,0,0,168,179,183,214,163,213,277,144,268,100,107,76,0,,
2,1774544968464,775,-19,11395,1038470,416610,-101403,0,0,0,319,291,87,481,359,434,395,80,412,180,85,278,0,,
1,1774544968480,751,-12519,8336,-1684766,-1516167,-410501,0,0,0,164,190,184,214,186,214,282,158,276,110,122,83,0,,
2,1774544968480,995,-38,12457,1437976,543670,-157603,0,0,0,332,274,86,509,348,433,355,77,433,189,84,294,0,,
1,1774544968496,4733,-16558,7748,-1160643,-1265712,-103847,0,0,0,159,163,184,205,154,226,293,179,259,144,166,97,0,,
2,1774544968496,971,-95,13046,1913229,565661,-204028,0,0,0,355,263,94,512,332,472,313,75,449,211,75,341,0,,
1,1774544968512,6523,-20373,9475,-453262,-125838,193033,0,0,0,158,155,181,213,148,218,307,244,250,183,246,94,0,,
2,1774544968512,1005,-330,12888,2453234,486248,-213802,0,0,0,372,260,108,492,341,515,272,71,452,209,71,385,0,,
1,1774544968528,2737,-14180,11543,1436755,2333505,961501,0,0,0,164,158,150,212,153,207,336,331,248,240,336,86,0,,
2,1774544968528,1258,-631,12648,2879618,443488,-221133,0,0,0,392,261,124,488,350,495,214,53,438,160,68,368,0,,
1,1774544968544,-2694,-1335,12285,3340211,3932750,1552819,0,0,0,167,149,132,226,150,206,362,376,243,304,385,79,0,,
2,1774544968544,1660,-880,13156,3375641,450818,-293215,0,0,0,404,277,98,486,382,447,210,60,400,170,89,346,0,,
1,1774544968560,-5111,3541,12840,3966958,2885727,960280,0,0,0,180,147,134,237,145,211,398,415,245,343,427,78,0,,
2,1774544968560,1799,-1062,14075,3944967,392175,-395840,0,0,0,409,249,104,455,357,431,222,64,397,149,67,318,0,,
1,1774544968576,-1282,507,15673,3577226,1110553,-39095,0,0,0,187,140,159,245,134,220,425,421,250,370,436,91,0,,
2,1774544968576,1761,-1177,15707,4620584,274889,-459370,0,0,0,386,250,131,406,362,407,238,74,397,127,52,343,0,,
1,1774544968592,1005,-1277,17233,2697580,521678,-35430,0,0,0,205,139,193,260,127,230,456,418,258,402,441,97,0,,
2,1774544968592,1943,-1684,18492,5496565,190589,-493579,0,0,0,340,245,147,423,369,376,252,98,291,133,61,268,0,,
1,1774544968608,-268,-1009,14400,1395216,516791,279776,0,0,0,218,143,216,265,122,234,477,411,261,426,455,104,0,,
2,1774544968608,2837,-3263,22569,6552140,298102,-488692,0,0,0,310,228,123,368,322,324,225,83,251,140,69,244,0,,
1,1774544968624,-1263,-4,10519,378736,373849,108734,0,0,0,215,144,237,258,120,243,483,409,263,438,461,116,0,,
2,1774544968624,3469,-4321,26298,7457442,845437,-530231,0,0,0,267,215,95,356,289,308,265,135,232,131,64,253,0,,
1,1774544968640,-885,387,9571,76969,147829,-79412,0,0,0,211,144,263,255,124,257,490,417,270,448,459,123,0,,
2,1774544968640,2555,-2871,28370,8184372,1178969,-675616,0,0,0,213,172,75,289,269,258,225,106,205,112,68,160,0,,
1,1774544968656,-550,354,10098,98960,8552,-63529,0,0,0,212,148,269,251,131,265,500,421,272,457,465,134,0,,
2,1774544968656,3857,-325,27585,8770803,995710,-899193,0,0,0,142,128,52,215,186,141,230,109,118,108,70,62,0,,
1,1774544968672,-612,339,10275,85521,-45204,6108,0,0,0,214,143,267,245,131,284,511,450,283,478,478,145,0,,
2,1774544968672,6901,3125,23699,9001710,1447750,-1247386,0,0,0,114,116,49,185,151,96,234,113,86,103,70,37,0,,
1,1774544968688,-775,392,10035,37873,-52534,32986,0,0,0,218,151,260,268,131,288,513,455,285,490,485,146,0,,
2,1774544968688,7671,9662,13199,7810522,2653598,-1903456,0,0,0,110,123,50,182,151,97,232,113,87,94,66,38,0,,
1,1774544968704,-775,416,9930,28099,-42760,23212,0,0,0,223,158,229,257,131,252,489,469,269,465,487,122,0,,
2,1774544968704,3374,16487,8671,3771481,3174055,-2852740,0,0,0,119,124,59,179,146,96,226,102,82,86,57,32,0,,
1,1774544968720,-713,406,10002,45204,-26878,19547,0,0,0,218,156,234,273,136,265,526,470,278,483,487,121,0,,
2,1774544968720,-3560,19243,12486,-1672549,1809382,-2830749,0,0,0,121,118,63,181,143,98,225,97,82,84,52,29,0,,
1,1774544968736,-674,378,10069,53756,-36651,19547,0,0,0,222,167,231,282,159,265,516,461,267,481,487,128,0,,
2,1774544968736,-3086,14596,12849,-4528954,-828333,-1486845,0,0,0,111,112,55,186,145,108,230,102,88,87,52,31,0,,
1,1774544968752,-674,373,10054,58643,-62308,15882,0,0,0,227,176,234,288,165,263,514,455,264,472,480,133,0,,
2,1774544968752,1722,9605,8920,-5551543,-2205223,-498466,0,0,0,110,111,53,186,145,111,231,99,88,88,49,31,0,,
1,1774544968768,-698,392,9987,73303,-75747,12217,0,0,0,244,187,244,313,168,264,528,440,286,474,471,138,0,,
2,1774544968768,3933,8078,5771,-5433035,-1372003,-612086,0,0,0,112,116,55,187,150,106,235,101,91,91,52,34,0,,
1,1774544968784,-717,397,9949,101403,-51312,10995,0,0,0,243,199,239,313,186,258,524,413,297,475,457,165,0,,
2,1774544968784,1775,7848,6618,-5660277,-379958,-1009149,0,0,0,118,115,68,192,153,112,237,106,100,96,59,40,0,,
1,1774544968800,-708,368,9959,127059,-17104,12217,0,0,0,255,210,231,324,206,260,518,399,299,482,441,188,0,,
2,1774544968800,138,7173,8437,-6045122,-40317,-1095892,0,0,0,115,107,86,191,139,127,230,101,113,97,55,49,0,,
1,1774544968816,-684,325,9992,149051,3665,15882,0,0,0,279,235,248,345,235,275,515,386,308,475,414,209,0,,
2,1774544968816,-9,6269,9796,-6382320,80634,-844215,0,0,0,117,111,86,191,140,122,240,99,113,102,64,59,0,,
1,1774544968832,-660,306,10026,173485,10995,18325,0,0,0,297,266,268,350,269,293,513,360,318,458,373,239,0,,
2,1774544968832,-287,5001,11160,-6574131,458148,-266337,0,0,0,117,111,89,191,146,125,238,101,109,95,54,47,0,,
1,1774544968848,-650,296,10054,196698,0,20769,0,0,0,315,290,272,358,297,310,512,331,323,447,338,265,0,,
2,1774544968848,-646,3809,12725,-6563136,734260,488692,0,0,0,114,113,85,189,145,123,239,103,114,95,57,46,0,,
1,1774544968864,-646,268,10069,217468,-23212,25656,0,0,0,343,309,290,376,330,332,502,300,331,427,310,291,0,,
2,1774544968864,-626,3058,14424,-6516710,952949,1229060,0,0,0,114,124,74,191,163,114,238,112,103,94,63,44,0,,
1,1774544968880,-641,229,10088,229685,-57421,32986,0,0,0,373,307,317,383,341,357,488,260,358,402,257,336,0,,
2,1774544968880,-440,2603,16893,-6565579,1186300,1874134,0,0,0,116,118,66,192,154,107,238,107,97,95,59,40,0,,
1,1774544968896,-636,201,10112,245567,-101403,42760,0,0,0,406,324,347,394,335,374,473,230,365,383,233,379,0,,
2,1774544968896,-555,1957,19478,-6679200,1177748,2032959,0,0,0,119,111,64,194,143,106,239,95,95,93,50,35,0,,
1,1774544968912,-646,167,10160,289550,-166155,52534,0,0,0,435,338,350,411,366,377,440,183,362,347,198,414,0,,
2,1774544968912,-564,1201,22311,-6767165,906524,1985312,0,0,0,121,107,62,196,138,104,239,89,95,94,41,30,0,,
1,1774544968928,-693,134,10236,362853,-232128,65973,0,0,0,478,338,323,425,367,409,402,153,353,317,166,439,0,,
2,1774544968928,19,579,25269,-6830695,403171,1722639,0,0,0,120,107,64,194,137,109,240,88,100,94,39,32,0,,
1,1774544968944,-799,57,10380,480140,-282219,91629,0,0,0,501,354,321,438,376,427,374,154,370,308,159,468,0,,
2,1774544968944,1206,-631,28384,-6956533,57421,1369559,0,0,0,120,106,63,195,138,114,241,87,106,92,40,35,0,,
1,1774544968960,-933,-19,10614,596204,-239459,129503,0,0,0,525,380,270,444,396,427,333,133,376,274,138,483,0,,
2,1774544968960,1718,-4058,30552,-7023728,35430,1171639,0,0,0,119,108,60,197,144,113,241,91,105,91,43,35,0,,
1,1774544968976,-1062,-86,11150,744033,-42760,180816,0,0,0,538,407,216,462,418,437,312,127,366,259,128,508,0,,
2,1774544968976,1574,-12428,31203,-6710965,120951,1048244,0,0,0,119,112,62,196,145,114,242,96,108,91,48,35,0,,
1,1774544968992,-957,-86,11916,1037249,95294,228463,0,0,0,545,432,189,487,435,455,323,123,361,250,106,532,0,,
2,1774544968992,2258,-24489,28662,-6012135,-182037,722042,0,0,0,122,111,63,199,140,117,247,93,113,95,46,37,0,,
1,1774544969008,-756,-172,12342,1426981,59864,265115,0,0,0,546,442,178,505,448,457,327,123,347,249,95,545,0,,
2,1774544969008,4288,-37712,20320,-4901582,-929736,-306654,0,0,0,122,112,61,201,145,116,247,93,111,97,44,35,0,,
1,1774544969024,-497,-315,12419,1777617,-67195,261450,0,0,0,550,446,178,495,452,447,295,130,335,244,94,549,0,,
2,1774544969024,2043,-48150,12060,-3155729,-886976,-1540602,0,0,0,120,114,60,197,147,115,249,102,107,104,59,33,0,,
1,1774544969040,-344,-416,12916,2234545,-122173,200363,0,0,0,558,468,181,464,455,441,258,138,337,230,94,546,0,,
2,1774544969040,-5867,-51323,9801,-519235,-386066,-1792278,0,0,0,121,127,51,182,156,101,264,160,91,142,133,34,0,,
1,1774544969056,-928,-473,13874,2787988,-37873,156381,0,0,0,557,491,171,447,467,434,240,137,333,227,104,541,0,,
2,1774544969056,-4273,-36759,15716,2291966,-1081231,-592539,0,0,0,104,122,33,145,157,75,304,332,70,218,292,30,0,,
1,1774544969072,-1880,-579,14644,3441614,103847,235793,0,0,0,554,471,179,443,450,444,199,119,328,212,102,532,0,,
2,1774544969072,4848,1325,20387,4728096,-1670105,171042,0,0,0,104,143,38,158,185,88,302,410,86,238,396,27,0,,
1,1774544969088,-2378,-660,15242,4191757,271224,478918,0,0,0,547,453,177,439,448,416,198,100,336,212,86,520,0,,
2,1774544969088,8193,21004,13189,5865528,-863763,355523,0,0,0,98,146,45,158,187,119,314,434,114,250,414,45,0,,
1,1774544969104,-2397,-689,15893,4940678,410501,725707,0,0,0,534,485,186,452,452,410,198,99,361,208,84,486,0,,
2,1774544969104,2105,4513,12208,6320011,878424,762359,0,0,0,126,125,39,219,163,128,368,451,116,323,434,49,0,,
1,1774544969120,-3531,-871,16712,5933944,757472,1038470,0,0,0,490,446,147,453,450,393,215,111,353,192,94,431,0,,
2,1774544969120,-2971,-5340,18420,5918062,1404990,773355,0,0,0,150,116,55,253,149,152,416,483,145,378,461,54,0,,
1,1774544969136,-4752,-1746,19205,7026171,1259604,1450194,0,0,0,367,381,147,435,425,375,221,128,331,177,95,379,0,,
2,1774544969136,-1378,-2684,20516,4646241,519235,-7330,0,0,0,180,112,66,286,143,159,454,516,153,451,487,50,0,,
1,1774544969152,-6269,-5561,26690,8107403,1368338,1813048,0,0,0,302,338,156,380,368,343,231,123,306,155,89,315,0,,
2,1774544969152,1497,-114,17219,3026226,-199142,-343306,0,0,0,196,116,71,287,139,163,462,526,153,461,494,49,0,,
1,1774544969168,-9652,-7465,32261,8835554,540004,2222327,0,0,0,250,294,143,326,283,284,234,115,268,131,81,225,0,,
2,1774544969168,1675,4,12179,1158200,-272445,-129503,0,0,0,205,126,83,286,148,173,473,534,158,454,487,55,0,,
1,1774544969184,-12179,-2220,29499,8911302,-189368,3070208,0,0,0,199,227,156,273,199,236,245,110,249,120,74,130,0,,
2,1774544969184,626,-253,9715,46425,-50090,78190,0,0,0,218,140,97,296,158,183,488,535,168,447,481,57,0,,
1,1774544969200,-14108,4982,23220,8670621,-267558,4254065,0,0,0,172,196,177,239,179,220,249,121,249,108,84,87,0,,
2,1774544969200,373,119,10002,-2443,36651,53756,0,0,0,224,155,105,298,165,190,494,532,178,444,473,54,0,,
1,1774544969216,-14721,10811,16496,7446447,-300545,5668829,0,0,0,167,202,185,230,199,224,240,132,251,100,97,94,0,,
2,1774544969216,670,454,10251,112399,-21991,-8552,0,0,0,223,159,102,296,166,196,496,528,188,439,456,51,0,,
1,1774544969232,-11782,13615,13807,4400673,-1078788,6731734,0,0,0,166,187,193,226,185,225,238,122,249,105,90,97,0,,
2,1774544969232,756,483,10102,111177,-58643,-19547,0,0,0,220,153,105,309,167,214,498,509,206,423,439,54,0,,
1,1774544969248,-4489,16214,11878,-135612,-1604132,6326120,0,0,0,170,168,203,229,154,231,243,111,253,96,77,94,0,,
2,1774544969248,655,402,9954,95294,-58643,-13439,0,0,0,211,159,125,325,185,250,506,480,233,405,422,71,0,,
1,1774544969264,1904,14276,10557,-4418999,-472809,3529579,0,0,0,169,164,218,229,152,243,246,110,262,93,75,98,0,,
2,1774544969264,603,373,10040,144164,-48869,-25656,0,0,0,216,175,151,348,200,279,520,455,244,374,390,88,0,,
1,1774544969280,-2876,8801,8083,-5611408,1269377,-106290,0,0,0,166,164,226,228,151,248,247,111,264,94,79,102,0,,
2,1774544969280,612,368,10122,195476,-37873,-35430,0,0,0,204,182,170,377,216,281,504,403,248,329,332,103,0,,
1,1774544969296,-9217,6432,6058,-5090950,574213,-1825265,0,0,0,168,164,233,228,151,250,250,110,269,89,73,100,0,,
2,1774544969296,626,335,10107,219911,-25656,-30543,0,0,0,206,200,140,350,236,308,508,362,276,307,298,123,0,,
1,1774544969312,-8427,6278,6676,-4941899,-1633453,-2309070,0,0,0,168,163,235,228,151,253,250,110,273,99,76,106,0,,
2,1774544969312,660,282,10078,228463,-18325,-24434,0,0,0,222,182,150,371,231,305,524,309,288,316,285,140,0,,
1,1774544969328,-4431,6125,8882,-5503895,-2981022,-2728124,0,0,0,165,162,242,232,153,262,250,109,272,95,73,104,0,,
2,1774544969328,698,224,10078,229685,-29321,-25656,0,0,0,235,196,137,379,242,284,490,283,273,281,262,156,0,,
1,1774544969344,-1909,5197,11332,-6409198,-2828306,-3161838,0,0,0,167,163,242,232,154,265,249,108,274,107,78,107,0,,
2,1774544969344,693,186,10083,221133,-42760,-29321,0,0,0,282,197,134,393,249,295,495,258,278,269,236,150,0,,
1,1774544969360,-3000,3464,12739,-6863681,-2505769,-3255911,0,0,0,167,161,228,231,151,256,250,108,270,99,72,101,0,,
2,1774544969360,665,153,10093,194255,-43982,-30543,0,0,0,286,220,115,396,275,306,481,243,277,259,235,148,0,,
1,1774544969376,-3488,1651,14252,-6996850,-2670702,-3057991,0,0,0,169,164,221,232,154,249,254,112,269,98,75,99,0,,
2,1774544969376,660,129,10112,166155,-43982,-31764,0,0,0,320,225,122,413,288,326,469,231,294,276,255,169,0,,
1,1774544969392,-2278,387,16223,-6862460,-2895501,-2827084,0,0,0,173,167,209,233,154,240,256,114,267,103,78,95,0,,
2,1774544969392,684,124,10126,144164,-62308,-28099,0,0,0,342,230,132,412,294,326,445,206,306,259,214,194,0,,
1,1774544969408,-985,-330,18492,-6644992,-2878397,-2747671,0,0,0,177,167,197,232,152,232,255,111,262,107,77,90,0,,
2,1774544969408,717,100,10074,133168,-98960,-25656,0,0,0,352,250,129,414,309,324,436,182,305,262,186,211,0,,
1,1774544969424,-636,-612,21009,-6414085,-2674368,-2911383,0,0,0,176,167,198,232,154,233,252,110,261,104,76,89,0,,
2,1774544969424,713,67,10031,149051,-112399,-39095,0,0,0,374,265,122,428,337,334,422,163,321,253,169,218,0,,
1,1774544969440,-923,-1167,23326,-6191730,-2560747,-3138625,0,0,0,173,166,201,232,155,233,253,111,261,101,71,88,0,,
2,1774544969440,713,57,10160,189368,-89186,-63529,0,0,0,389,270,146,441,358,357,412,130,335,231,139,236,0,,
1,1774544969456,-1732,-2498,25948,-5909510,-2481334,-3314554,0,0,0,178,166,201,237,151,233,259,106,261,106,67,86,0,,
2,1774544969456,789,38,10500,289550,-51312,-101403,0,0,0,400,288,170,443,380,369,398,97,332,219,112,270,0,,
1,1774544969472,-2995,-4862,28552,-5732359,-2359161,-3266907,0,0,0,185,165,203,243,151,234,266,103,263,117,68,91,0,,
2,1774544969472,866,4,10892,492357,-23212,-147829,0,0,0,418,306,155,451,399,374,377,83,328,210,94,305,0,,
1,1774544969488,-3977,-9126,29949,-5954714,-2230879,-2894279,0,0,0,185,164,198,249,156,235,265,102,262,120,63,87,0,,
2,1774544969488,947,-23,11428,794124,21991,-197920,0,0,0,427,299,131,477,394,390,365,77,329,203,83,330,0,,
1,1774544969504,-4096,-15812,28834,-6403089,-2178345,-2343279,0,0,0,183,173,188,251,173,237,270,113,268,114,67,85,0,,
2,1774544969504,770,-23,12218,1209513,79412,-235793,0,0,0,441,295,113,488,389,401,327,73,339,189,85,349,0,,
1,1774544969520,-1694,-27269,23469,-6361550,-2268753,-1646892,0,0,0,185,169,181,256,164,233,271,109,275,121,72,84,0,,
2,1774544969520,411,-67,12495,1629788,86742,-213802,0,0,0,454,322,118,491,428,431,290,71,339,167,81,364,0,,
1,1774544969536,4029,-40511,16118,-5320636,-2307848,-1126435,0,0,0,182,186,182,257,191,235,274,118,270,117,75,84,0,,
2,1774544969536,411,-205,12701,2032959,158824,-150272,0,0,0,478,333,117,484,443,430,268,71,352,165,72,399,0,,
1,1774544969552,13697,-52787,9609,-3012787,-2043955,-1047023,0,0,0,187,182,187,259,194,238,278,123,269,114,71,83,0,,
2,1774544969552,737,-349,13519,2560747,278554,-114842,0,0,0,487,356,121,454,458,429,246,86,390,159,90,389,0,,
1,1774544969568,18176,-49418,9614,172263,-373849,-1440420,0,0,0,164,168,177,228,171,223,274,186,248,190,192,92,0,,
2,1774544969568,1344,-425,14587,3196046,309097,-156381,0,0,0,495,350,142,443,455,430,227,76,355,211,85,397,0,,
1,1774544969584,9954,-32988,13093,2736676,2102598,-1352455,0,0,0,150,155,120,229,163,203,305,294,227,286,340,86,0,,
2,1774544969584,2053,-550,15281,4058588,134390,-313984,0,0,0,490,334,139,442,442,447,219,80,350,159,85,395,0,,
1,1774544969600,-4670,-6518,15568,4260174,2929709,53756,0,0,0,143,154,88,246,169,208,331,379,240,333,439,81,0,,
2,1774544969600,2641,-607,16453,5013981,-116064,-543670,0,0,0,471,326,136,435,423,438,228,77,350,152,71,340,0,,
1,1774544969616,-6891,7173,11835,6170960,2069611,1933999,0,0,0,159,149,104,257,159,220,379,429,259,383,486,80,0,,
2,1774544969616,3838,-760,19679,6258925,-493579,-852767,0,0,0,406,292,140,426,386,380,212,70,300,132,61,281,0,,
1,1774544969632,-4556,617,17721,7627263,1326799,1993864,0,0,0,202,136,167,279,132,236,451,453,269,465,501,94,0,,
2,1774544969632,5671,-2201,25508,7786088,-899193,-1226617,0,0,0,305,265,107,379,348,306,209,76,224,122,63,211,0,,
1,1774544969648,-2349,-4996,26594,6401867,1018923,777020,0,0,0,230,146,255,312,130,276,478,442,294,506,513,135,0,,
2,1774544969648,7925,-5446,33553,9287595,-636521,-1558928,0,0,0,226,226,75,331,316,259,184,75,178,105,59,152,0,,
1,1774544969664,-1253,-3694,22067,2955366,1014036,68416,0,0,0,235,189,280,309,175,303,486,410,303,509,533,154,0,,
2,1774544969664,7173,-4355,38879,10362717,680503,-2013411,0,0,0,146,188,62,261,276,212,182,79,147,87,53,92,0,,
1,1774544969680,-727,-478,11854,357967,642630,-39095,0,0,0,234,227,321,323,244,338,505,407,319,524,536,202,0,,
2,1774544969680,5254,2756,39147,10868514,1010371,-2575407,0,0,0,117,141,49,210,211,135,214,84,104,86,43,46,0,,
1,1774544969696,-564,622,8193,-243124,151494,-21991,0,0,0,251,220,284,330,206,305,509,398,299,526,530,211,0,,
2,1774544969696,9897,10222,30878,10538647,379958,-3103195,0,0,0,127,125,39,203,181,89,243,125,78,99,65,28,0,,
1,1774544969712,-698,234,9968,222354,-81855,-6108,0,0,0,254,228,282,332,223,303,532,394,307,522,517,209,0,,
2,1774544969712,13797,14563,20124,9650449,1262047,-4017049,0,0,0,141,136,41,215,184,91,245,146,80,104,80,29,0,,
1,1774544969728,-756,177,10595,224798,-68416,-8552,0,0,0,250,237,289,326,238,303,507,399,308,500,517,204,0,,
2,1774544969728,7853,20172,11289,6254038,3479488,-4394564,0,0,0,141,127,47,208,167,93,227,97,82,91,47,29,0,,
1,1774544969744,-741,335,10155,73303,-79412,-3665,0,0,0,261,236,276,335,232,293,499,384,307,498,492,203,0,,
2,1774544969744,-2488,24651,8523,-17104,3742160,-2668259,0,0,0,124,124,59,197,161,98,227,94,85,90,45,34,0,,
1,1774544969760,-727,416,9911,61086,-125838,1221,0,0,0,271,232,275,340,224,292,495,343,304,485,456,215,0,,
2,1774544969760,-6216,19794,11519,-5646838,724486,746477,0,0,0,120,121,83,197,159,118,229,93,100,90,44,46,0,,
1,1774544969776,-751,406,9992,125838,-155159,3665,0,0,0,291,260,283,361,280,292,504,303,307,479,397,229,0,,
2,1774544969776,1627,9906,9930,-7137349,-2448347,2957809,0,0,0,120,121,72,198,161,110,228,91,92,90,46,40,0,,
1,1774544969792,-794,368,10131,194255,-162490,6108,0,0,0,291,285,293,353,313,307,493,274,324,455,353,249,0,,
2,1774544969792,8523,4455,5642,-6698748,-2378709,2863736,0,0,0,123,122,66,201,164,103,232,97,85,90,42,35,0,,
1,1774544969808,-818,344,10078,212581,-167377,9773,0,0,0,291,296,273,345,319,317,474,257,325,426,329,272,0,,
2,1774544969808,7604,3508,4584,-6422637,-39095,1541823,0,0,0,131,123,55,209,165,97,246,104,85,99,51,31,0,,
1,1774544969824,-837,301,10007,223576,-167377,19547,0,0,0,310,316,250,357,331,327,462,248,318,408,315,295,0,,
2,1774544969824,1545,3761,8016,-6824586,1415985,592539,0,0,0,135,120,57,216,160,102,257,98,87,107,53,36,0,,
1,1774544969840,-847,248,9987,229685,-146607,34208,0,0,0,330,346,264,367,348,358,455,242,334,393,307,324,0,,
2,1774544969840,-1861,3948,11088,-7198435,1291369,433714,0,0,0,137,119,53,219,159,95,256,92,78,113,48,30,0,,
1,1774544969856,-827,205,10031,238237,-112399,41538,0,0,0,353,360,273,379,371,366,454,229,349,375,281,352,0,,
2,1774544969856,-1292,3651,12275,-7380473,822224,812450,0,0,0,138,118,49,220,158,90,259,95,78,108,48,26,0,,
1,1774544969872,-799,181,10074,245567,-100181,42760,0,0,0,391,367,318,377,381,370,432,199,359,348,232,381,0,,
2,1774544969872,-526,2751,13338,-7441560,861319,1297477,0,0,0,139,120,51,217,158,94,262,98,85,107,48,30,0,,
1,1774544969888,-813,157,10107,257785,-106290,43982,0,0,0,418,368,303,394,420,406,411,215,364,335,229,424,0,,
2,1774544969888,-445,1665,15051,-7329161,1086118,1817934,0,0,0,146,122,61,214,150,94,259,90,83,104,45,29,0,,
1,1774544969904,-851,114,10155,296880,-111177,51312,0,0,0,449,382,277,407,397,384,394,189,347,322,200,430,0,,
2,1774544969904,-172,1115,16999,-7210653,1154535,2222327,0,0,0,141,119,56,196,147,95,258,91,86,104,45,30,0,,
1,1774544969920,-885,62,10198,340862,-84299,68416,0,0,0,460,376,275,441,406,402,383,163,336,318,168,448,0,,
2,1774544969920,397,933,19473,-7158118,1138652,2398256,0,0,0,138,116,64,206,149,104,259,93,93,106,46,37,0,,
1,1774544969936,-875,19,10236,375071,-25656,87964,0,0,0,494,376,269,439,423,417,363,150,349,299,148,462,0,,
2,1774544969936,660,449,22962,-7108027,1037249,2309070,0,0,0,139,117,59,216,150,98,259,91,87,106,44,34,0,,
1,1774544969952,-875,-9,10356,426383,23212,107512,0,0,0,514,419,249,444,420,441,337,131,378,278,139,499,0,,
2,1774544969952,981,-454,26537,-7018841,708603,2212553,0,0,0,137,118,48,213,152,91,258,90,79,104,42,27,0,,
1,1774544969968,-928,-47,10839,559552,45204,135612,0,0,0,524,417,228,469,436,454,324,130,379,261,135,517,0,,
2,1774544969968,3196,-3474,30476,-7013954,240680,2118480,0,0,0,131,119,52,206,156,96,251,89,83,99,40,29,0,,
1,1774544969984,-1033,-86,11605,817337,53756,180816,0,0,0,536,405,195,476,449,458,310,129,366,248,120,537,0,,
2,1774544969984,5958,-10122,33237,-7110471,255341,1780061,0,0,0,125,119,55,199,156,99,240,88,88,92,40,31,0,,
1,1774544970000,-990,-138,12218,1171639,17104,237015,0,0,0,538,419,178,479,448,490,325,125,364,247,104,548,0,,
2,1774544970000,5853,-21617,32232,-6977302,592539,944397,0,0,0,126,116,55,205,156,103,239,89,91,93,42,34,0,,
1,1774544970016,-751,-234,12428,1606575,-127059,272445,0,0,0,538,425,170,479,452,498,322,120,375,246,98,552,0,,
2,1774544970016,3369,-34596,26814,-6321233,472809,25656,0,0,0,127,115,52,206,153,104,243,96,95,91,40,30,0,,
1,1774544970032,-636,-344,12653,2003637,-259006,262672,0,0,0,545,419,169,482,463,471,293,119,369,244,96,557,0,,
2,1774544970032,559,-45895,17329,-4642575,-133168,-574213,0,0,0,127,118,52,207,155,102,247,98,96,95,45,29,0,,
1,1774544970048,-918,-440,13175,2467895,-271224,248011,0,0,0,550,426,181,493,454,455,278,122,347,245,95,553,0,,
2,1774544970048,-1631,-50724,10107,-2097711,-219911,-583987,0,0,0,133,116,50,216,154,99,260,104,90,103,50,28,0,,
1,1774544970064,-1292,-550,13744,3037221,-199142,282219,0,0,0,550,425,184,476,418,452,250,111,358,242,98,546,0,,
2,1774544970064,-4072,-46757,10112,817337,100181,98960,0,0,0,120,129,37,183,158,71,273,249,70,144,188,25,0,,
1,1774544970080,-1679,-650,14314,3673743,-113620,386066,0,0,0,549,424,178,473,413,458,250,98,345,241,88,545,0,,
2,1774544970080,-2833,-31146,17396,3200933,-309097,866206,0,0,0,108,132,28,174,182,86,307,389,79,261,347,42,0,,
1,1774544970096,-2048,-703,14874,4476420,-72082,591317,0,0,0,538,400,184,500,407,464,235,100,369,240,83,532,0,,
2,1774544970096,1703,1493,18133,5395161,-1711644,1425759,0,0,0,100,135,35,172,171,110,310,440,98,270,420,38,0,,
1,1774544970112,-2182,-780,15496,5326744,4886,819781,0,0,0,524,391,153,460,432,466,200,112,369,201,83,514,0,,
2,1774544970112,976,11686,12553,7060380,-1298699,1747074,0,0,0,129,122,37,223,159,129,419,463,120,341,438,35,0,,
1,1774544970128,-2354,-990,17185,6384763,175929,1044579,0,0,0,416,372,154,458,395,475,220,107,406,184,79,454,0,,
2,1774544970128,-3436,1407,16491,7886270,498466,1387885,0,0,0,174,96,57,265,125,153,488,502,164,447,474,47,0,,
1,1774544970144,-3172,-2991,22756,7608937,333532,1209513,0,0,0,335,350,149,435,365,403,223,116,362,174,84,359,0,,
2,1774544970144,-2483,-5699,25776,6267477,563217,309097,0,0,0,208,91,80,279,107,168,511,514,169,494,489,50,0,,
1,1774544970160,-4450,-6460,30045,8649851,149051,1241278,0,0,0,276,309,142,392,316,349,241,116,316,145,69,276,0,,
2,1774544970160,1244,-3814,20966,2441017,-469144,-267558,0,0,0,229,94,93,283,97,171,528,521,168,508,488,56,0,,
1,1774544970176,-7264,-6068,33720,9309586,-653625,1340238,0,0,0,229,263,130,333,251,288,255,121,280,128,69,184,0,,
2,1774544970176,1311,-110,10806,87964,-502131,-32986,0,0,0,232,97,98,282,97,170,541,524,165,505,486,51,0,,
1,1774544970192,-10571,196,31380,9553932,-623082,2171015,0,0,0,177,206,171,260,207,257,252,131,270,106,84,119,0,,
2,1774544970192,358,765,7997,-270002,-95294,113620,0,0,0,227,107,106,267,110,170,542,519,158,491,481,46,0,,
1,1774544970208,-16037,7092,24288,9255830,224798,3543018,0,0,0,160,184,198,235,189,250,251,128,269,99,90,97,0,,
2,1774544970208,277,124,10102,147829,65973,45204,0,0,0,228,115,136,265,118,187,546,513,168,490,466,60,0,,
1,1774544970224,-19167,11940,17764,7787310,-298102,5236336,0,0,0,167,179,182,241,174,239,250,118,258,105,87,92,0,,x
2,1774544970224,569,52,10725,175929,20769,-12217,0,0,0,233,113,156,290,119,208,555,501,186,493,444,64,0,,x
1,1774544970240,-14390,16501,14094,4040262,-2219884,6923546,0,0,0,167,163,173,231,157,233,247,114,246,108,87,91,0,,
2,1774544970240,693,320,10145,56199,-31764,-12217,0,0,0,242,124,122,307,132,193,548,485,180,476,417,57,0,,
1,1774544970256,-2426,18511,12160,-1567480,-2210110,6232047,0,0,0,170,160,189,226,149,240,251,109,243,112,86,91,0,,
2,1774544970256,603,382,9901,85521,-36651,0,0,0,0,248,142,110,326,163,203,531,459,180,458,385,52,0,,
1,1774544970272,3642,14333,10844,-5812993,13439,3690847,0,0,0,169,156,206,224,147,236,249,112,244,109,85,91,0,,
2,1774544970272,559,311,10045,162490,-41538,-8552,0,0,0,255,164,114,335,205,240,523,411,217,445,355,60,0,,
1,1774544970288,-1100,7523,9054,-6833138,2360383,889419,0,0,0,169,162,178,228,152,228,249,115,243,112,94,90,0,,
2,1774544970288,564,244,10174,207694,-51312,-25656,0,0,0,286,173,123,351,205,231,522,393,222,421,335,71,0,,
1,1774544970304,-7977,5053,7097,-6070778,1948660,-271224,0,0,0,169,163,179,232,156,231,250,114,244,117,94,87,0,,
2,1774544970304,559,229,10136,228463,-52534,-30543,0,0,0,293,195,141,375,242,241,508,338,237,364,346,88,0,,
1,1774544970320,-9408,5116,6886,-5632177,-941954,-583987,0,0,0,170,164,178,232,154,230,253,113,248,125,94,91,0,,
2,1774544970320,555,201,10112,256563,-45204,-29321,0,0,0,331,208,147,396,268,251,508,300,247,350,304,134,0,,
1,1774544970336,-4881,4862,9102,-6181956,-2620611,-998153,0,0,0,169,166,183,228,158,230,251,118,249,118,104,94,0,,
2,1774544970336,555,134,10112,276111,-41538,-28099,0,0,0,323,196,202,386,262,293,471,256,265,311,278,145,0,,
1,1774544970352,-1622,3847,11567,-6873455,-2847853,-1714087,0,0,0,166,167,177,228,163,232,251,126,250,109,98,87,0,,
2,1774544970352,564,57,10122,257785,-42760,-25656,0,0,0,330,212,177,391,276,287,461,222,258,306,215,155,0,,
1,1774544970368,-2349,2153,13271,-7221648,-2392148,-2415361,0,0,0,163,163,206,225,158,249,252,125,260,115,105,98,0,,
2,1774544970368,583,14,10112,219911,-52534,-25656,0,0,0,343,230,232,393,289,314,446,203,280,277,199,185,0,,
1,1774544970384,-3890,416,14697,-7125132,-2648711,-2625498,0,0,0,165,158,236,229,151,270,256,111,273,117,94,109,0,,
2,1774544970384,622,0,10102,197920,-70860,-34208,0,0,0,357,232,240,394,302,309,439,185,296,258,179,197,0,,
1,1774544970400,-3661,-751,16621,-6965085,-3137403,-2641381,0,0,0,170,156,231,238,149,266,266,105,271,116,82,104,0,,
2,1774544970400,655,0,10122,200363,-85521,-51312,0,0,0,380,243,233,403,315,330,440,157,313,267,155,232,0,,
1,1774544970416,-2029,-1282,19234,-6829473,-3434284,-2701246,0,0,0,175,158,199,246,150,247,273,109,263,116,81,94,0,,
2,1774544970416,626,-19,10222,230907,-62308,-63529,0,0,0,394,262,235,414,344,360,437,131,327,264,141,267,0,,
1,1774544970432,-1091,-1335,21794,-6785491,-3238807,-3039665,0,0,0,179,161,177,251,154,235,278,114,259,118,81,89,0,,
2,1774544970432,626,-71,10356,295658,-35430,-78190,0,0,0,408,288,220,417,371,386,419,116,345,243,129,290,0,,
1,1774544970448,-1569,-1474,23953,-6789156,-2974913,-3473379,0,0,0,180,169,175,253,157,233,285,113,259,118,75,84,0,,
2,1774544970448,655,-129,10504,403171,-23212,-103847,0,0,0,426,303,192,427,386,394,400,104,349,224,114,302,0,,
1,1774544970464,-3230,-1919,26097,-6819699,-2908940,-3842342,0,0,0,182,180,173,259,158,233,288,107,259,118,68,84,0,,
2,1774544970464,684,-177,10806,585208,0,-138055,0,0,0,440,297,157,455,400,372,394,90,325,216,100,313,0,,
1,1774544970480,-4029,-3249,28647,-6951646,-3138625,-3839898,0,0,0,196,158,171,280,148,233,285,109,261,123,72,86,0,,
2,1774544970480,655,-196,11404,860098,35430,-172263,0,0,0,449,299,115,470,401,393,380,75,328,209,97,343,0,,
1,1774544970496,-3015,-6685,30916,-7183775,-3106860,-3560122,0,0,0,208,158,164,299,156,233,309,113,261,135,75,85,0,,
2,1774544970496,631,-239,11878,1176526,43982,-179594,0,0,0,455,289,95,478,406,395,342,74,320,207,98,313,0,,
1,1774544970512,-1493,-14290,30016,-7016398,-2339613,-2954144,0,0,0,193,162,167,278,186,234,288,110,264,119,68,80,0,,
2,1774544970512,674,-344,12199,1596801,75747,-189368,0,0,0,477,301,113,467,402,446,305,88,342,184,96,365,0,,
1,1774544970528,-1866,-25278,25494,-6238155,-1351233,-1868025,0,0,0,176,181,167,257,186,239,272,149,264,119,118,85,0,,
2,1774544970528,679,-464,12577,2053728,149051,-201585,0,0,0,490,324,110,468,435,439,279,80,346,176,108,401,0,,
1,1774544970544,-1603,-37721,18080,-4949230,-966388,-241902,0,0,0,176,186,168,256,186,239,270,151,262,115,124,86,0,,
2,1774544970544,631,-598,12964,2521651,208915,-204028,0,0,0,490,371,120,462,428,451,252,68,338,150,84,424,0,,
1,1774544970560,7982,-48260,12792,-3038443,-1488067,968832,0,0,0,174,181,178,251,181,237,267,155,261,107,128,90,0,,
2,1774544970560,488,-751,13256,3044552,265115,-185703,0,0,0,498,355,123,482,444,442,253,73,336,161,86,422,0,,
1,1774544970576,17401,-48896,11744,-692721,-907745,665843,0,0,0,158,167,148,227,178,220,276,193,251,190,217,89,0,,
2,1774544970576,914,-942,13773,3613878,299323,-179594,0,0,0,499,381,110,432,452,453,203,81,350,161,106,367,0,,
1,1774544970592,12811,-36214,13428,1711644,1412320,-662177,0,0,0,137,157,95,217,176,204,300,325,249,302,373,83,0,,
2,1774544970592,1588,-1076,14735,4277278,257785,-261450,0,0,0,485,320,117,452,417,423,190,69,341,184,85,336,0,,
1,1774544970608,-2636,-12577,13682,4120896,2711019,-525344,0,0,0,144,154,85,214,161,205,354,446,254,390,491,86,0,,
2,1774544970608,1837,-1067,16400,5216789,108734,-431270,0,0,0,439,282,112,434,404,410,191,66,320,146,65,284,0,,
1,1774544970624,-6728,5364,12510,7528303,2845410,675616,0,0,0,161,135,92,221,134,208,407,495,256,447,536,104,0,,
2,1774544970624,2067,-1502,19521,6467841,-90408,-564439,0,0,0,351,272,106,395,392,340,180,68,270,130,66,225,0,,
1,1774544970640,-1923,263,22876,9004153,1990198,900415,0,0,0,184,111,108,239,107,206,466,488,251,497,539,103,0,,
2,1774544970640,3426,-3479,26097,7921700,-194255,-675616,0,0,0,279,242,81,349,349,281,190,69,211,122,58,179,0,,
1,1774544970656,741,-5206,30093,7597941,1211956,552222,0,0,0,209,107,167,255,104,232,516,470,258,534,534,106,0,,
2,1774544970656,7049,-6369,34692,9353568,227241,-904080,0,0,0,218,207,53,317,311,241,200,74,173,119,56,134,0,,
1,1774544970672,-871,-2933,20602,4106236,1186300,278554,0,0,0,227,129,240,274,131,276,526,450,279,546,546,138,0,,
2,1774544970672,8571,-5446,38745,10422582,1003040,-1494176,0,0,0,146,160,39,262,249,171,206,77,130,102,47,73,0,,
1,1774544970688,-1397,-516,11414,1343903,1020144,13439,0,0,0,260,170,246,308,159,270,535,402,278,577,567,142,0,,
2,1774544970688,8825,665,36357,10520321,1555262,-2201558,0,0,0,105,121,39,196,179,105,212,83,91,84,38,33,0,,
1,1774544970704,-598,-76,8973,261450,538783,-111177,0,0,0,296,222,238,323,213,278,533,362,279,602,545,200,0,,
2,1774544970704,12160,8844,30667,9810495,2587625,-3231477,0,0,0,111,118,46,174,159,92,211,94,81,84,46,32,0,,
1,1774544970720,-301,-268,10323,260228,186924,-53756,0,0,0,345,248,262,352,244,288,504,345,287,610,531,225,0,,
2,1774544970720,10490,14295,21641,7573507,4233296,-4941899,0,0,0,113,118,52,177,159,90,212,94,78,81,47,29,0,,
1,1774544970736,-430,-38,10624,285884,59864,2443,0,0,0,357,306,272,350,340,287,539,349,295,602,523,250,0,,
2,1774544970736,1172,19329,14247,3295007,4533841,-5269323,0,0,0,119,120,56,173,154,92,219,93,83,86,47,31,0,,
1,1774544970752,-507,210,10155,237015,30543,13439,0,0,0,391,329,286,360,354,294,525,311,292,588,480,277,0,,
2,1774544970752,-7140,19808,12213,-2244318,1533271,-2378709,0,0,0,121,120,56,156,145,91,223,98,84,88,51,34,0,,
1,1774544970768,-435,191,10054,194255,-67195,4886,0,0,0,409,337,291,378,348,306,539,286,312,554,434,292,0,,
2,1774544970768,-1541,13409,10016,-4900360,-2134363,1064127,0,0,0,122,120,56,187,152,100,229,96,83,88,44,32,0,,
1,1774544970784,-416,124,10189,197920,-180816,8552,0,0,0,411,339,295,382,347,310,518,276,311,515,386,313,0,,
2,1774544970784,6728,7599,5958,-5395161,-2962696,2444682,0,0,0,142,122,57,211,159,97,261,99,81,112,52,35,0,,
1,1774544970800,-449,86,10184,227241,-282219,18325,0,0,0,412,341,279,392,354,321,483,268,307,459,351,335,0,,
2,1774544970800,7250,5857,4312,-5253441,-684169,1638340,0,0,0,130,128,54,203,167,100,245,101,83,100,58,37,0,,
1,1774544970816,-497,86,10102,259006,-355523,26878,0,0,0,422,354,257,407,378,331,464,234,317,406,294,359,0,,
2,1774544970816,3034,5599,5742,-5549099,863763,918741,0,0,0,140,122,56,214,160,100,258,96,83,115,56,36,0,,
1,1774544970832,-588,81,10126,311541,-395840,37873,0,0,0,430,357,249,409,395,342,430,203,331,372,244,392,0,,
2,1774544970832,-1584,5159,8250,-6074443,1062905,724486,0,0,0,150,119,57,223,151,98,271,96,86,121,50,31,0,,
1,1774544970848,-679,28,10179,378736,-403171,52534,0,0,0,438,348,236,408,388,353,388,184,335,345,217,415,0,,
2,1774544970848,-2388,4297,9093,-6395759,764803,930958,0,0,0,148,121,60,222,152,103,266,96,87,114,47,33,0,,
1,1774544970864,-741,-76,10198,452040,-359188,67195,0,0,0,451,345,213,416,376,352,363,154,335,317,178,422,0,,
2,1774544970864,-2713,3551,9892,-6571688,857654,1156978,0,0,0,131,119,58,207,155,105,244,96,90,100,47,34,0,,
1,1774544970880,-741,-134,10227,460592,-232128,70860,0,0,0,459,349,209,434,377,359,346,140,336,303,152,440,0,,
2,1774544970880,-3718,3206,11562,-6596122,1136209,1419650,0,0,0,125,119,55,201,156,106,235,96,90,95,47,35,0,,
1,1774544970896,-717,-181,10327,469144,-95294,74525,0,0,0,482,366,206,459,394,371,363,161,331,305,164,452,0,,
2,1774544970896,-4527,3235,14103,-6713408,995710,1709200,0,0,0,126,118,59,199,153,106,236,95,92,95,47,36,0,,
1,1774544970912,-808,-268,10605,543670,32986,90408,0,0,0,503,367,190,433,390,388,328,149,335,286,141,468,0,,
2,1774544970912,-4130,3058,16243,-7015176,630412,1849699,0,0,0,126,116,60,202,153,108,239,96,95,95,45,33,0,,
1,1774544970928,-1043,-335,10935,690277,73303,135612,0,0,0,519,367,182,453,387,405,315,133,335,269,129,494,0,,
2,1774544970928,-2909,2368,18205,-7371921,294437,1737300,0,0,0,127,116,59,205,153,108,241,96,92,95,44,32,0,,
1,1774544970944,-1182,-411,11021,885754,61086,228463,0,0,0,530,395,187,454,392,408,320,120,331,270,122,523,0,,
2,1774544970944,-1660,1651,20569,-7583281,20769,1486845,0,0,0,125,119,60,201,156,107,238,97,90,93,48,34,0,,
1,1774544970960,-947,-564,10921,1044579,81855,306654,0,0,0,530,422,177,461,422,415,307,120,326,264,115,541,0,,
2,1774544970960,-258,914,24211,-7612602,-248011,1275486,0,0,0,120,124,63,194,162,108,235,101,89,90,52,33,0,,
1,1774544970976,-598,-717,11074,1202182,105068,332310,0,0,0,537,453,172,460,449,427,305,132,329,248,114,539,0,,
2,1774544970976,1598,-363,28552,-7650476,-472809,1295034,0,0,0,121,126,61,192,163,104,236,99,89,108,54,35,0,,
1,1774544970992,-397,-804,11485,1440420,89186,309097,0,0,0,547,456,175,448,458,424,287,131,327,239,110,539,0,,
2,1774544970992,4560,-3694,33242,-7867944,-536339,1522276,0,0,0,125,122,65,192,157,109,235,90,96,154,51,43,0,,
1,1774544971008,-306,-899,11844,1709200,52534,270002,0,0,0,550,449,185,449,440,431,265,126,330,239,104,544,0,,
2,1774544971008,8068,-12203,36836,-8208807,-313984,1593136,0,0,0,120,125,66,192,160,128,236,93,113,89,46,46,0,,
1,1774544971024,-287,-1019,12170,2006081,21991,222354,0,0,0,555,448,195,454,414,440,242,116,324,229,95,548,0,,
2,1774544971024,8973,-28054,34544,-7764097,102625,921184,0,0,0,126,118,80,219,163,145,250,91,126,89,43,48,0,,
1,1774544971040,-492,-1153,12916,2400700,23212,178372,0,0,0,560,456,200,441,416,437,215,114,318,217,89,543,0,,
2,1774544971040,6183,-44268,26700,-6092769,476474,35430,0,0,0,118,118,89,203,161,174,237,93,154,88,43,67,0,,
1,1774544971056,-952,-1263,13969,2970026,69638,200363,0,0,0,558,456,202,422,416,432,197,114,325,214,90,537,0,,
2,1774544971056,1282,-53964,16946,-3274237,531452,-235793,0,0,0,122,118,74,206,162,148,238,95,135,85,44,57,0,,
1,1774544971072,-1363,-1349,14749,3634648,142942,291993,0,0,0,552,444,202,417,394,426,182,103,335,209,91,532,0,,
2,1774544971072,-1756,-55592,11380,-420275,404392,100181,0,0,0,132,129,47,216,167,110,293,264,103,211,218,38,0,,
1,1774544971088,-1617,-1392,15395,4494746,250454,477696,0,0,0,542,439,199,424,422,415,164,107,360,205,99,515,0,,
2,1774544971088,-2005,-41583,15525,2025629,17104,618195,0,0,0,115,138,33,186,178,108,327,391,92,271,369,38,0,,
1,1774544971104,-1947,-1363,16099,5472130,436157,698829,0,0,0,528,404,175,440,431,419,168,106,347,186,89,499,0,,
2,1774544971104,-478,-7666,15654,5087285,-851546,1061683,0,0,0,93,138,34,164,183,117,320,442,108,254,432,42,0,,
1,1774544971120,-2526,-1440,17492,6624222,723264,966388,0,0,0,444,403,185,463,450,424,231,107,364,187,91,460,0,,
2,1774544971120,-52,10485,11194,7497759,-502131,1334129,0,0,0,109,119,39,199,163,132,363,486,122,332,483,41,0,,
1,1774544971136,-2593,-3881,22560,7892378,757472,1178969,0,0,0,370,362,170,422,400,454,258,97,379,187,77,401,0,,
2,1774544971136,-2072,1923,18927,8197811,748920,1011592,0,0,0,165,105,65,256,132,163,430,528,129,451,530,43,0,,
1,1774544971152,-3924,-7853,29815,9005375,167377,1209513,0,0,0,307,331,165,369,328,361,233,117,318,150,75,329,0,,
2,1774544971152,-1876,-5350,26834,7015176,789237,279776,0,0,0,213,114,90,281,123,171,464,556,142,496,548,42,0,,
1,1774544971168,-6709,-5451,32203,9531941,-897971,1433089,0,0,0,236,272,146,316,244,294,239,114,278,118,66,227,0,,
2,1774544971168,670,-4383,22967,3954741,-201585,-188146,0,0,0,238,133,104,290,134,161,477,577,149,503,554,35,0,,
1,1774544971184,-9528,-47,31150,9789726,-1164309,2146580,0,0,0,176,205,150,260,184,238,254,116,258,97,73,120,0,,
2,1774544971184,1263,-631,12132,792903,-520457,-63529,0,0,0,256,148,117,312,158,174,500,584,150,527,563,37,0,,
1,1774544971200,-16147,6896,25159,9765291,-398284,3571118,0,0,0,159,180,186,235,166,242,252,112,260,95,80,101,0,,
2,1774544971200,603,425,8356,-205250,-255341,63529,0,0,0,276,167,124,328,202,192,512,566,170,525,544,50,0,,
1,1774544971216,-22029,11122,17846,7957130,-967610,5480682,0,0,0,161,182,196,223,171,235,244,128,259,99,110,99,0,,
2,1774544971216,272,62,9844,83077,-57421,31764,0,0,0,301,189,141,361,243,225,513,544,189,518,515,71,0,,
1,1774544971232,-18492,14558,13361,3626096,-2825862,7393912,0,0,0,162,175,193,218,167,229,239,127,249,101,111,98,0,,
2,1774544971232,387,28,10643,255341,-73303,-18325,0,0,0,336,199,171,389,261,244,532,508,200,512,501,83,0,,
1,1774544971248,-4752,16003,12356,-1963320,-3552792,6947981,0,0,0,162,163,193,220,157,237,240,109,243,104,87,104,0,,
2,1774544971248,440,220,10251,204028,-118507,-30543,0,0,0,341,192,175,389,255,240,520,446,203,498,447,96,0,,
1,1774544971264,2450,10614,12021,-5838649,-1375668,3585778,0,0,0,161,163,194,222,158,239,246,112,247,106,88,103,0,,
2,1774544971264,349,272,9997,174707,-74525,-24434,0,0,0,336,207,184,387,264,269,497,417,224,444,383,120,0,,
1,1774544971280,-928,4053,10715,-7078706,742812,131946,0,0,0,164,164,207,224,161,246,249,111,252,107,88,103,0,,
2,1774544971280,311,201,10155,222354,6108,-23212,0,0,0,332,223,193,385,273,298,474,389,245,390,320,145,0,,
1,1774544971296,-6882,2402,9097,-6357885,136833,-1131322,0,0,0,164,162,199,227,161,243,253,111,252,113,91,100,0,,
2,1774544971296,330,124,10232,262672,58643,-21991,0,0,0,330,211,227,385,281,318,471,311,271,333,261,174,0,,
1,1774544971312,-8164,2589,8815,-6026796,-1285260,-1467298,0,0,0,164,161,200,226,159,243,254,113,256,112,89,104,0,,
2,1774544971312,368,95,10198,273667,80634,-14660,0,0,0,325,228,186,400,312,299,456,236,280,308,238,177,0,,
1,1774544971328,-5762,3062,10184,-6399424,-2575407,-1558928,0,0,0,164,161,206,225,159,246,253,114,256,112,89,104,0,,
2,1774544971328,464,90,10179,263893,90408,-15882,0,0,0,324,234,188,410,326,296,443,195,270,287,207,183,0,,
1,1774544971344,-3450,2727,12165,-7013954,-3154508,-1744631,0,0,0,165,163,197,223,157,238,255,114,256,109,88,100,0,,
2,1774544971344,497,134,10160,283441,94073,-26878,0,0,0,324,240,193,396,335,296,441,166,273,273,168,187,0,,
1,1774544971360,-3058,1430,13677,-7236309,-3220481,-1907121,0,0,0,162,160,227,220,151,259,252,112,271,106,84,112,0,,
2,1774544971360,488,119,10145,331088,87964,-36651,0,0,0,335,244,215,407,343,341,433,138,291,261,135,217,0,,
1,1774544971376,-3149,296,14888,-6947981,-3428175,-1897347,0,0,0,168,163,208,227,152,243,255,112,267,107,86,103,0,,
2,1774544971376,531,-19,10232,350636,61086,-45204,0,0,0,356,255,193,429,349,355,403,135,292,247,127,238,0,,
1,1774544971392,-2364,-186,16597,-6720739,-3685960,-1896125,0,0,0,163,162,212,223,154,247,253,112,276,107,89,104,0,,
2,1774544971392,574,-110,10500,410501,36651,-57421,0,0,0,376,262,145,432,366,332,366,142,281,229,117,245,0,,
1,1774544971408,-1009,-358,18789,-6681643,-3760486,-2083050,0,0,0,162,160,213,226,155,253,252,113,270,103,86,100,0,,
2,1774544971408,636,-167,10806,587652,24434,-73303,0,0,0,391,272,125,427,392,331,354,125,285,218,106,257,0,,
1,1774544971424,-526,-492,21057,-6676757,-3566231,-2608394,0,0,0,164,161,205,230,156,250,253,113,265,102,82,97,0,,
2,1774544971424,684,-248,10892,788016,-12217,-92851,0,0,0,405,287,125,428,396,350,362,95,296,213,108,276,0,,
1,1774544971440,-1287,-555,23464,-6646213,-3415958,-3259576,0,0,0,164,163,198,231,158,245,257,113,267,104,82,99,0,,
2,1774544971440,646,-382,10610,906524,-68416,-108734,0,0,0,424,281,137,434,377,381,348,83,300,198,89,309,0,,
1,1774544971456,-2364,-1383,25900,-6697526,-3566231,-3555235,0,0,0,165,163,195,233,159,246,260,113,271,104,82,101,0,,
2,1774544971456,703,-545,10457,945619,-79412,-136833,0,0,0,434,291,163,445,367,427,336,73,319,194,79,340,0,,
1,1774544971472,-2407,-3359,28489,-6772052,-3670078,-3486818,0,0,0,174,163,195,245,173,245,275,116,272,111,80,98,0,,
2,1774544971472,856,-641,10993,1037249,-86742,-182037,0,0,0,450,308,109,450,401,408,295,75,315,188,79,329,0,,
1,1774544971488,-1292,-7150,30231,-6818477,-3406184,-3134960,0,0,0,182,160,209,255,189,252,293,118,276,123,77,97,0,,
2,1774544971488,1057,-698,12045,1330464,-147829,-255341,0,0,0,473,324,138,455,409,451,267,78,330,172,77,364,0,,
1,1774544971504,148,-14912,29303,-6692639,-2852740,-2663372,0,0,0,160,154,253,236,151,286,265,107,295,105,73,114,0,,
2,1774544971504,880,-717,12897,1817934,-207694,-340862,0,0,0,492,342,120,452,415,408,255,74,315,165,84,347,0,,
1,1774544971520,1612,-25168,25953,-6114761,-2367713,-2246762,0,0,0,164,162,218,241,157,261,264,111,280,111,85,104,0,,
2,1774544971520,378,-737,13199,2348165,-200363,-362853,0,0,0,524,364,136,452,437,419,240,82,315,161,80,373,0,,
1,1774544971536,3804,-38267,19071,-4583932,-1891238,-1933999,0,0,0,173,172,202,239,156,252,267,115,283,98,83,98,0,,
2,1774544971536,282,-890,13491,2948035,-120951,-317649,0,0,0,521,390,114,446,472,420,230,93,308,168,115,344,0,,
1,1774544971552,7800,-48599,13242,-2656042,-1777617,-1841147,0,0,0,175,172,190,257,163,250,278,113,283,111,88,101,0,,
2,1774544971552,492,-1086,13917,3549127,-17104,-299323,0,0,0,521,394,134,436,465,411,227,88,319,150,103,369,0,,
1,1774544971568,13941,-50873,11423,-183259,-1589471,-2152689,0,0,0,153,176,115,233,168,222,309,234,256,225,252,88,0,,
2,1774544971568,1024,-1239,14821,4245513,75747,-340862,0,0,0,533,346,151,419,453,393,202,80,315,158,83,326,0,,
1,1774544971584,10691,-37506,13711,2442239,295658,-2427578,0,0,0,141,189,94,219,198,228,317,406,272,310,413,87,0,,
2,1774544971584,1809,-1177,16870,5235115,-6108,-509461,0,0,0,493,335,186,450,453,414,213,81,337,168,78,311,0,,
1,1774544971600,3383,-13993,10806,5695707,3086091,-1599245,0,0,0,137,184,86,229,190,260,365,489,282,404,502,98,0,,
2,1774544971600,2177,-1167,20416,6660874,-302989,-742812,0,0,0,412,308,173,441,411,399,220,67,303,152,62,284,0,,
1,1774544971616,583,2177,13749,8879537,4527733,-151494,0,0,0,176,162,100,248,176,258,460,486,273,498,527,108,0,,
2,1774544971616,2871,-3000,25872,8254011,-427605,-856433,0,0,0,316,255,105,384,354,316,206,64,227,137,61,214,0,,
1,1774544971632,1493,-856,27762,9593027,2662150,454483,0,0,0,204,136,166,261,135,262,509,441,264,567,567,109,0,,
2,1774544971632,4800,-6341,33735,9927781,168598,-926071,0,0,0,235,216,60,326,308,261,220,65,179,124,60,144,0,,
1,1774544971648,689,-4699,31327,7534411,1104444,531452,0,0,0,228,169,212,295,174,265,534,411,264,592,592,126,0,,
2,1774544971648,6168,-5518,38693,10938152,1343903,-1277930,0,0,0,161,173,51,273,251,207,228,67,153,99,47,81,0,,
1,1774544971664,-1033,-3153,18870,3043330,929736,224798,0,0,0,265,239,234,331,258,266,548,409,274,607,596,165,0,,
2,1774544971664,8547,-641,38741,11321776,2150245,-1962099,0,0,0,109,130,42,217,196,119,216,84,112,82,42,32,0,,
1,1774544971680,-894,-770,9772,339641,742812,-48869,0,0,0,303,281,261,343,297,275,539,418,297,629,596,209,0,,
2,1774544971680,13792,8777,32108,10640050,3139847,-3109304,0,0,0,112,126,43,179,170,81,225,100,79,88,50,27,0,,
1,1774544971696,-215,71,8619,-130725,233350,-103847,0,0,0,324,303,278,354,314,279,525,413,316,635,591,237,0,,
2,1774544971696,13055,16587,18176,7391469,4717101,-5101946,0,0,0,114,122,53,173,157,87,218,94,81,88,51,31,0,,
1,1774544971712,-282,-114,10409,190589,-36651,-19547,0,0,0,326,328,269,355,319,269,523,390,306,638,594,241,0,,
2,1774544971712,3488,18602,12467,2310292,5001764,-5819102,0,0,0,122,118,71,169,147,103,222,89,91,89,44,40,0,,
1,1774544971728,-449,-28,10643,190589,-97738,14660,0,0,0,327,290,274,357,319,269,513,380,316,633,585,243,0,,
2,1774544971728,-6269,14668,13931,-3225368,2050063,-2938261,0,0,0,123,112,47,182,143,89,225,88,78,89,43,29,0,,
1,1774544971744,-454,181,10093,46425,-119729,7330,0,0,0,310,304,299,319,335,285,524,373,315,610,543,255,0,,
2,1774544971744,-4402,8456,12859,-5716476,-1891238,758694,0,0,0,123,112,49,182,145,90,225,90,79,89,41,29,0,,
1,1774544971760,-421,258,9964,23212,-184481,3665,0,0,0,300,299,269,318,334,280,506,379,315,590,490,252,0,,
2,1774544971760,4316,4723,7776,-5420818,-3527135,2604729,0,0,0,123,114,50,184,144,92,225,90,80,87,40,25,0,,
1,1774544971776,-430,239,10136,98960,-262672,14660,0,0,0,290,286,280,330,319,292,514,331,320,547,456,263,0,,
2,1774544971776,6709,4871,4618,-5120272,-1864360,2480112,0,0,0,121,114,52,185,144,97,226,91,83,88,43,30,0,,
1,1774544971792,-488,210,10141,163711,-318871,28099,0,0,0,283,283,271,344,310,295,507,312,324,527,418,269,0,,
2,1774544971792,3417,5470,5312,-5527108,40317,2142915,0,0,0,116,112,53,186,149,102,226,93,88,89,46,31,0,,
1,1774544971808,-536,177,10040,206472,-342084,34208,0,0,0,276,287,266,353,325,309,490,287,331,476,354,285,0,,
2,1774544971808,234,5072,7485,-6139195,585208,2072054,0,0,0,122,113,54,188,152,100,227,96,85,89,47,32,0,,
1,1774544971824,-588,157,9964,222354,-322536,36651,0,0,0,280,293,269,368,339,316,473,268,336,430,331,301,0,,
2,1774544971824,-425,4130,8643,-6520375,594982,1966986,0,0,0,122,115,57,188,151,101,230,95,87,91,47,33,0,,
1,1774544971840,-622,110,9964,223576,-267558,40317,0,0,0,294,287,287,378,333,329,477,248,342,413,313,319,0,,
2,1774544971840,-62,3139,9327,-6644992,698829,1588249,0,0,0,121,115,56,193,150,98,232,92,83,94,44,29,0,,
1,1774544971856,-655,57,9987,223576,-210137,41538,0,0,0,311,288,278,373,328,330,478,230,342,400,284,332,0,,
2,1774544971856,-153,2632,10433,-6748839,900415,1103222,0,0,0,122,114,50,197,151,94,232,91,80,94,43,26,0,,
1,1774544971872,-679,38,10007,228463,-153938,42760,0,0,0,330,309,263,367,334,330,461,221,340,385,277,353,0,,
2,1774544971872,-540,2431,12222,-6984633,1077566,526565,0,0,0,122,115,48,197,153,93,232,92,82,93,45,28,0,,
1,1774544971888,-684,28,10035,244346,-111177,45204,0,0,0,361,333,264,374,359,351,444,209,341,370,270,390,0,,
2,1774544971888,-899,2148,14185,-7237531,1141096,156381,0,0,0,122,116,51,195,151,94,232,94,85,94,46,31,0,,
1,1774544971904,-650,-14,10069,271224,-86742,51312,0,0,0,413,346,226,394,404,361,426,192,339,350,230,412,0,,
2,1774544971904,-923,1990,16228,-7391469,1149648,68416,0,0,0,120,117,52,191,150,99,234,94,85,92,45,31,0,,
1,1774544971920,-698,-52,10150,320093,-101403,65973,0,0,0,449,363,225,421,397,380,411,167,345,345,183,458,0,,
2,1774544971920,-263,2201,18717,-7476990,1193630,301767,0,0,0,115,116,57,181,150,97,231,94,87,88,46,29,0,,
1,1774544971936,-799,-76,10294,398284,-119729,96516,0,0,0,476,407,217,450,442,412,413,153,362,306,167,494,0,,
2,1774544971936,890,2507,22933,-7615046,1507615,840550,0,0,0,112,115,53,180,148,94,228,93,86,88,46,29,0,,
1,1774544971952,-861,-148,10461,496022,-90408,146607,0,0,0,513,400,240,462,436,441,352,139,351,284,138,514,0,,
2,1774544971952,1387,1454,28403,-7876496,1874134,1549154,0,0,0,113,116,52,181,150,97,228,90,86,89,47,29,0,,
1,1774544971968,-1014,-201,10859,601091,-56199,204028,0,0,0,536,398,215,467,457,452,339,160,375,263,141,555,0,,
2,1774544971968,1971,-3163,33558,-8134281,1737300,2383596,0,0,0,115,116,51,186,153,99,232,95,88,88,47,26,0,,
1,1774544971984,-1201,-224,11859,828333,-58643,300545,0,0,0,542,406,179,481,472,468,315,145,375,257,129,572,0,,
2,1774544971984,3407,-12251,37128,-8124507,1331686,2957809,0,0,0,117,129,51,188,170,99,233,104,87,88,54,30,0,,
1,1774544972000,-813,-282,12835,1309695,-142942,377514,0,0,0,543,421,165,481,499,468,318,140,369,254,117,562,0,,
2,1774544972000,3665,-25111,37051,-7623598,812450,2714685,0,0,0,121,130,53,196,169,114,241,105,103,93,55,35,0,,
1,1774544972016,-497,-363,13223,1860695,-261450,377514,0,0,0,540,425,165,485,476,474,292,137,366,252,115,559,0,,
2,1774544972016,3364,-40526,29739,-6321233,-280998,1762957,0,0,0,122,128,55,198,166,111,242,105,101,97,53,33,0,,
1,1774544972032,-641,-440,13701,2388483,-351858,329867,0,0,0,544,429,172,470,462,475,264,136,368,243,109,559,0,,
2,1774544972032,4431,-52816,18257,-4145331,-1020144,733038,0,0,0,119,129,49,197,169,101,240,103,87,98,53,30,0,,
1,1774544972048,-947,-454,14577,3000570,-362853,316428,0,0,0,551,423,179,459,442,468,246,123,357,239,101,561,0,,
2,1774544972048,1947,-54826,11730,-1209513,-228463,334754,0,0,0,112,126,35,177,160,69,282,239,65,167,203,24,0,,
1,1774544972064,-1273,-425,15443,3737273,-305432,368962,0,0,0,551,416,187,455,431,477,221,111,350,236,99,557,0,,
2,1774544972064,-2809,-46053,15127,1745852,513126,807563,0,0,0,103,125,28,172,158,75,314,373,67,237,339,28,0,,
1,1774544972080,-1698,-363,15975,4624249,-298102,508239,0,0,0,543,415,185,451,445,494,189,106,375,223,96,544,0,,
2,1774544972080,-2301,-14807,19435,5112942,-450818,1685988,0,0,0,114,128,30,177,163,99,367,440,85,285,415,34,0,,
1,1774544972096,-2057,-239,16716,5805663,-270002,750142,0,0,0,519,401,159,465,437,481,172,94,405,204,81,521,0,,
2,1774544972096,-95,5637,13366,7973013,-851546,1868025,0,0,0,132,122,34,206,151,123,431,485,106,340,460,37,0,,
1,1774544972112,-2167,-411,19698,7219205,-13439,981049,0,0,0,453,376,146,469,427,452,192,101,393,179,66,458,0,,
2,1774544972112,-1986,2761,17951,9320581,372627,1479515,0,0,0,164,107,47,251,126,157,481,527,137,417,493,34,0,,
1,1774544972128,-2498,-2584,26187,8655960,317649,1072679,0,0,0,351,346,144,420,373,413,193,102,360,160,68,350,0,,
2,1774544972128,-2613,-5087,27623,7698123,564439,519235,0,0,0,204,92,72,279,105,180,522,551,161,485,507,37,0,,
1,1774544972144,-4268,-6561,33964,9909455,262672,971275,0,0,0,301,305,154,369,322,357,233,118,313,144,65,256,0,,
2,1774544972144,-110,-5010,24345,4185648,-283441,-70860,0,0,0,228,90,93,288,95,185,549,564,167,518,507,50,0,,
1,1774544972160,-9681,-3732,34797,10341948,-401949,1270599,0,0,0,221,256,127,324,242,289,255,117,281,118,65,173,0,,
2,1774544972160,1502,-976,12443,533896,-691499,-86742,0,0,0,239,101,104,300,104,202,557,573,183,528,506,56,0,,
1,1774544972176,-14831,2723,31538,10520321,-788016,2256536,0,0,0,172,219,158,269,206,257,269,126,273,104,79,115,0,,
2,1774544972176,679,435,8475,-202807,-256563,40317,0,0,0,248,117,108,311,133,210,563,571,197,526,502,56,0,,
1,1774544972192,-20062,11012,24034,10223440,-1043357,3949854,0,0,0,167,212,170,257,202,253,259,123,264,109,87,101,0,,
2,1774544972192,181,210,9619,83077,-2443,39095,0,0,0,253,131,111,317,152,224,549,565,206,528,502,64,0,,
1,1774544972208,-20689,17425,15788,7164227,-2831971,6346889,0,0,0,171,195,185,248,174,262,242,109,263,103,77,101,0,,
2,1774544972208,373,38,10624,229685,-52534,-13439,0,0,0,273,143,112,325,184,228,563,536,215,522,485,71,0,,
1,1774544972224,-11529,20861,12356,1687209,-4400673,7908261,0,0,0,175,173,214,236,150,259,240,100,257,100,73,102,0,,
2,1774544972224,502,167,10351,163711,-111177,-34208,0,0,0,291,167,137,333,199,274,554,514,225,514,451,71,0,,
1,1774544972240,1124,16549,12045,-3942524,-3022561,6707300,0,0,0,174,161,214,233,146,250,247,101,250,105,76,100,0,,
2,1774544972240,430,258,10002,125838,-91629,-29321,0,0,0,296,183,192,357,222,266,544,471,234,481,402,92,0,,
1,1774544972256,4852,8566,10806,-6734178,-85521,4025601,0,0,0,170,161,191,236,152,246,250,109,249,108,86,97,0,,
2,1774544972256,363,229,10088,172263,-37873,-24434,0,0,0,289,179,177,364,241,289,522,424,257,458,368,124,0,,
1,1774544972272,-1143,3062,8169,-6396980,1797165,1472185,0,0,0,170,164,191,235,154,246,251,114,251,106,92,96,0,,
2,1774544972272,382,157,10208,216246,-3665,-23212,0,0,0,307,189,160,377,243,253,501,369,250,421,341,108,0,,
1,1774544972288,-6384,2794,6867,-5458691,748920,331088,0,0,0,170,161,207,235,147,255,258,109,258,103,79,98,0,,
2,1774544972288,406,134,10145,221133,4886,-20769,0,0,0,317,208,141,373,271,242,493,326,249,375,286,113,0,,
1,1774544972304,-7547,3441,7432,-5240002,-1087340,-320093,0,0,0,169,159,235,232,147,273,256,109,269,103,84,108,0,,
2,1774544972304,421,129,10107,223576,10995,-20769,0,0,0,320,206,151,371,264,251,466,281,247,338,250,124,0,,
1,1774544972320,-5350,3694,9576,-5811771,-2454456,-849102,0,0,0,165,161,234,230,153,272,253,121,270,103,96,107,0,,
2,1774544972320,488,114,10126,223576,14660,-25656,0,0,0,322,213,160,374,282,259,457,235,269,311,228,138,0,,
1,1774544972336,-3345,3235,11653,-6374989,-3045774,-1441641,0,0,0,167,165,222,234,155,271,253,124,265,98,95,99,0,,
2,1774544972336,516,47,10145,226020,0,-40317,0,0,0,333,226,160,383,297,265,466,201,277,305,193,161,0,,
1,1774544972352,-2775,2211,13347,-6662096,-3105638,-2043955,0,0,0,166,165,219,234,157,264,256,130,267,108,111,103,0,,
2,1774544972352,483,0,10131,241902,-28099,-54977,0,0,0,351,243,156,390,301,268,447,195,266,279,183,184,0,,
1,1774544972368,-3249,1191,15247,-6713408,-3375641,-2443460,0,0,0,167,159,226,239,153,268,257,113,271,109,92,103,0,,
2,1774544972368,425,-23,10126,252898,-41538,-51312,0,0,0,364,265,149,399,322,273,426,172,268,248,169,192,0,,
1,1774544972384,-2670,564,17319,-6801373,-3805690,-2673146,0,0,0,166,158,239,241,157,278,260,112,277,112,88,110,0,,
2,1774544972384,421,-43,10160,267558,-30543,-40317,0,0,0,375,274,152,410,344,291,413,153,279,240,147,197,0,,
1,1774544972400,-1086,4,19841,-6919881,-4057366,-3022561,0,0,0,167,154,241,239,150,280,262,106,281,110,80,109,0,,
2,1774544972400,483,-86,10246,306654,-10995,-37873,0,0,0,387,276,154,417,360,307,389,148,291,232,149,211,0,,
1,1774544972416,-320,-349,22287,-6928433,-3813020,-3576005,0,0,0,172,153,234,258,144,280,271,102,282,116,79,108,0,,
2,1774544972416,598,-143,10390,383623,-10995,-54977,0,0,0,394,284,147,426,375,327,383,102,313,230,126,231,0,,
1,1774544972432,-808,-569,24881,-6907664,-3530801,-4168544,0,0,0,173,158,210,257,147,268,270,103,276,110,72,99,0,,
2,1774544972432,713,-210,10653,530231,-20769,-98960,0,0,0,407,284,159,436,394,377,381,86,331,231,98,272,0,,
1,1774544972448,-1852,-1115,27504,-6939429,-3473379,-4636467,0,0,0,174,164,193,250,152,257,266,107,269,102,68,91,0,,
2,1774544972448,622,-258,10930,724486,-8552,-144164,0,0,0,428,285,156,456,394,388,377,87,313,208,96,317,0,,
1,1774544972464,-2239,-3555,30385,-7060380,-3424510,-4897917,0,0,0,173,170,182,251,162,254,265,124,266,100,84,87,0,,
2,1774544972464,536,-320,11275,946841,4886,-172263,0,0,0,429,294,113,453,403,421,354,73,345,194,89,353,0,,
1,1774544972480,-2617,-8628,32050,-7174001,-2915048,-4834387,0,0,0,167,177,166,249,174,250,266,146,268,98,107,84,0,,
2,1774544972480,564,-397,11820,1236391,39095,-182037,0,0,0,445,318,106,487,447,436,339,79,342,196,97,374,0,,
1,1774544972496,-5608,-18621,29289,-6925990,-1882686,-3955963,0,0,0,167,190,163,251,189,244,270,147,269,107,109,88,0,,
2,1774544972496,650,-478,12500,1634675,97738,-199142,0,0,0,469,306,115,498,425,425,290,80,346,186,73,387,0,,
1,1774544972512,-8509,-30777,22938,-6108652,-1532050,-2221106,0,0,0,166,210,158,254,223,244,273,152,273,100,94,85,0,,
2,1774544972512,674,-569,13180,2173458,175929,-223576,0,0,0,483,321,107,478,445,434,252,89,344,189,87,388,0,,
1,1774544972528,-842,-44910,15429,-4379903,-2789210,122173,0,0,0,167,208,158,258,206,250,268,154,278,101,112,85,0,,
2,1774544972528,626,-631,13787,2794097,245567,-232128,0,0,0,501,328,118,467,434,429,269,79,362,166,85,381,0,,
1,1774544972544,14443,-53304,12596,-2184454,-3291341,960280,0,0,0,171,208,160,256,222,247,273,145,278,98,94,85,0,,
2,1774544972544,971,-698,14654,3488040,265115,-252898,0,0,0,515,341,108,464,439,426,218,80,350,168,97,380,0,,
1,1774544972560,21895,-50289,13113,354301,-893084,25656,0,0,0,170,185,156,254,189,237,299,173,270,177,171,98,0,,
2,1774544972560,1823,-775,15668,4276056,173485,-357967,0,0,0,509,325,111,454,428,434,193,71,350,173,80,351,0,,
1,1774544972576,8375,-33141,14620,2306627,2744006,-693942,0,0,0,138,177,85,234,220,215,360,402,255,375,421,90,0,,
2,1774544972576,2455,-665,17324,5359731,-31764,-601091,0,0,0,473,312,131,459,443,441,210,71,346,169,65,304,0,,
1,1774544972592,-5656,-3498,13524,3848451,4214970,-114842,0,0,0,141,135,73,232,168,212,402,504,254,480,548,94,0,,
2,1774544972592,2292,-536,20435,6754947,-260228,-844215,0,0,0,374,280,144,436,393,383,210,68,308,149,59,236,0,,
1,1774544972608,-6154,13993,11428,6776938,3582113,574213,0,0,0,182,104,96,253,111,213,476,515,256,543,572,100,0,,
2,1774544972608,2325,-2416,27456,8458040,-244346,-860098,0,0,0,285,235,117,386,321,304,207,65,240,129,57,176,0,,
1,1774544972624,957,1148,24101,9552710,1969429,492357,0,0,0,211,96,139,267,91,216,508,461,265,581,581,113,0,,
2,1774544972624,4699,-5656,35606,10057285,464257,-802676,0,0,0,219,204,71,330,288,255,221,73,184,118,57,134,0,,
1,1774544972640,1981,-7039,28030,7783644,1062905,470366,0,0,0,222,138,244,268,131,259,512,420,284,592,592,163,0,,
2,1774544972640,7403,-4800,38827,11021230,1793500,-1120326,0,0,0,138,161,47,259,222,176,234,90,136,110,62,75,0,,
1,1774544972656,-1024,-3455,17228,3277902,915076,355523,0,0,0,252,182,326,292,181,309,533,419,298,595,594,214,0,,
2,1774544972656,12275,1732,36314,11052995,2939483,-2097711,0,0,0,117,119,48,197,162,91,242,121,81,110,86,32,0,,
1,1774544972672,-1689,19,9509,583987,577878,116064,0,0,0,292,178,300,343,185,317,538,399,301,604,586,228,0,,
2,1774544972672,18190,13424,26862,10045067,4839274,-3788586,0,0,0,115,142,76,172,177,99,231,150,93,107,112,46,0,,
1,1774544972688,-708,291,9083,180816,128281,-29321,0,0,0,314,219,303,358,220,333,528,356,305,624,560,271,0,,
2,1774544972688,10677,23886,13692,5500230,6145304,-5406157,0,0,0,117,125,59,172,151,86,222,110,82,99,70,41,0,,
1,1774544972704,-440,-196,10433,386066,-18325,-9773,0,0,0,358,252,282,368,265,321,515,305,302,631,528,312,0,,
2,1774544972704,-1014,23689,13065,23212,4506963,-4210083,0,0,0,121,109,50,180,135,86,225,98,78,92,50,33,0,,
1,1774544972720,-579,-95,10447,345749,7330,18325,0,0,0,451,301,273,379,286,315,527,305,301,621,476,309,0,,
2,1774544972720,-5900,15931,14869,-4614476,54977,-387288,0,0,0,119,109,50,177,136,88,225,98,78,92,48,25,0,,
1,1774544972736,-617,162,10064,208915,-14660,9773,0,0,0,394,282,316,385,296,340,528,308,315,594,420,343,0,,
2,1774544972736,2574,8375,10050,-5437922,-2780658,1868025,0,0,0,121,110,50,178,136,87,227,99,78,95,49,29,0,,
1,1774544972752,-569,220,10069,178372,-111177,0,0,0,0,398,296,347,387,301,354,496,250,329,542,371,360,0,,
2,1774544972752,8547,5369,5025,-5259549,-2320066,1820378,0,0,0,119,110,75,181,138,127,228,102,106,96,53,64,0,,
1,1774544972768,-540,167,10232,235793,-232128,9773,0,0,0,413,317,307,387,365,344,466,244,326,476,322,377,0,,
2,1774544972768,5431,5599,5360,-5391496,-173485,856433,0,0,0,122,111,57,183,140,99,231,103,87,95,51,36,0,,
1,1774544972784,-550,124,10212,305432,-360410,21991,0,0,0,419,312,279,400,352,350,460,186,316,434,241,397,0,,
2,1774544972784,1100,5513,7619,-5703037,670730,648738,0,0,0,119,111,47,183,142,94,232,100,80,108,50,30,0,,
1,1774544972800,-641,86,10145,367740,-464257,32986,0,0,0,418,318,273,406,366,356,433,178,324,413,220,398,0,,
2,1774544972800,-775,5005,9222,-5933944,524122,1034805,0,0,0,117,112,48,186,144,94,234,100,81,101,50,27,0,,
1,1774544972816,-746,14,10083,412944,-491135,41538,0,0,0,417,328,265,402,375,370,396,169,330,362,203,406,0,,
2,1774544972816,-263,4450,9911,-6102543,588874,1387885,0,0,0,119,113,50,187,145,93,237,101,83,98,51,29,0,,
1,1774544972832,-842,-71,10011,406836,-422718,46425,0,0,0,415,334,259,399,391,384,368,160,345,320,187,425,0,,
2,1774544972832,-201,4024,11179,-6302907,913854,1557706,0,0,0,117,112,49,188,149,93,237,102,84,97,53,28,0,,
1,1774544972848,-914,-138,9959,361632,-324980,52534,0,0,0,419,337,249,405,392,388,352,152,359,311,178,436,0,,
2,1774544972848,-808,3871,13481,-6586349,1142317,1654223,0,0,0,116,110,49,190,146,94,238,101,85,96,53,27,0,,
1,1774544972864,-923,-177,9930,302989,-221133,58643,0,0,0,436,340,232,426,381,392,346,140,360,309,161,446,0,,
2,1774544972864,-1220,3622,15802,-6903998,1084896,1766622,0,0,0,120,109,51,195,143,97,240,99,86,99,52,29,0,,
1,1774544972880,-957,-224,9935,265115,-135612,69638,0,0,0,455,347,222,448,395,403,344,137,365,309,148,463,0,,
2,1774544972880,-741,2804,18037,-7219205,730594,1868025,0,0,0,122,112,51,202,146,99,240,100,85,101,52,31,0,,
1,1774544972896,-1048,-277,9959,254119,-54977,90408,0,0,0,464,353,221,433,406,406,331,131,369,313,157,478,0,,
2,1774544972896,397,2077,20014,-7386582,409279,1903456,0,0,0,121,113,51,199,147,100,240,100,85,100,53,33,0,,
1,1774544972912,-1072,-306,9973,246789,45204,130725,0,0,0,498,360,224,438,408,417,335,134,364,303,146,508,0,,
2,1774544972912,1631,1871,22493,-7406130,289550,1951103,0,0,0,119,112,53,195,148,102,240,98,88,98,51,33,0,,
1,1774544972928,-1009,-325,10031,250454,119729,167377,0,0,0,513,379,215,454,408,430,347,125,360,295,137,530,0,,
2,1774544972928,2967,1780,26173,-7387804,448375,2182010,0,0,0,116,108,50,194,147,101,240,100,88,100,50,31,0,,
1,1774544972944,-976,-339,10270,288328,145385,202807,0,0,0,525,368,203,481,398,428,338,122,353,290,129,536,0,,
2,1774544972944,4379,559,30538,-7525859,757472,2621833,0,0,0,115,106,50,195,145,97,241,97,86,100,47,35,0,,
1,1774544972960,-938,-335,10806,398284,130725,243124,0,0,0,547,395,202,475,439,442,324,148,360,276,161,545,0,,
2,1774544972960,5403,-4967,33869,-7693236,827111,3187494,0,0,0,123,111,50,205,148,102,246,98,92,103,52,33,0,,
1,1774544972976,-856,-344,11462,635299,95294,274889,0,0,0,543,409,171,487,445,445,308,143,361,276,149,573,0,,
2,1774544972976,6652,-14462,34682,-7401243,630412,3352428,0,0,0,123,109,51,215,142,112,247,98,101,104,51,36,0,,
1,1774544972992,-708,-421,11921,993266,25656,283441,0,0,0,547,434,169,481,449,477,319,142,377,272,132,569,0,,
2,1774544972992,8523,-27590,31074,-6384763,186924,2513099,0,0,0,139,109,60,232,142,116,278,99,104,122,52,45,0,,
1,1774544973008,-569,-502,12328,1403768,-53756,265115,0,0,0,555,453,183,480,430,471,309,135,364,256,120,562,0,,
2,1774544973008,8896,-39248,23297,-5061629,-160046,753807,0,0,0,141,113,54,234,148,112,280,100,99,129,60,36,0,,
1,1774544973024,-540,-531,12988,1838704,-92851,226020,0,0,0,558,451,179,481,425,468,304,130,358,250,101,564,0,,
2,1774544973024,2727,-48236,15051,-3251024,3665,-946841,0,0,0,143,110,50,234,147,108,283,96,96,132,58,33,0,,
1,1774544973040,-717,-555,13878,2350609,-106290,208915,0,0,0,555,452,179,466,422,454,280,121,355,245,93,563,0,,
2,1774544973040,-5044,-51418,11902,-935845,-30543,-1169196,0,0,0,131,125,48,208,158,100,272,170,95,142,153,37,0,,
1,1774544973056,-1158,-588,14812,3032335,-73303,230907,0,0,0,556,454,189,446,420,441,236,112,357,232,92,552,0,,
2,1774544973056,-3555,-43795,14156,1606575,-679282,-287106,0,0,0,118,119,32,175,158,84,310,340,77,206,314,28,0,,
1,1774544973072,-1742,-646,15376,3743382,-28099,312763,0,0,0,557,441,196,440,416,447,202,103,363,222,91,539,0,,
2,1774544973072,1421,-19420,19463,3997502,-1654223,91629,0,0,0,113,116,34,165,152,98,351,434,86,261,408,35,0,,
1,1774544973088,-2349,-593,16027,4692666,3665,544891,0,0,0,547,419,192,453,411,454,187,96,364,220,93,525,0,,
2,1774544973088,4072,8030,14534,6525262,-2514321,465479,0,0,0,111,119,43,175,148,115,382,470,108,304,455,41,0,,
1,1774544973104,-2483,-425,16831,5756794,102625,847880,0,0,0,514,409,171,465,438,459,178,105,375,198,86,497,0,,
2,1774544973104,1450,7461,14189,8521570,-934623,1167974,0,0,0,123,105,43,205,135,129,443,516,123,385,496,38,0,,
1,1774544973120,-3149,-507,18913,7163005,395840,1166752,0,0,0,433,376,145,457,429,463,189,105,385,172,80,444,0,,
2,1774544973120,-3460,-5288,24546,8538674,983493,1290147,0,0,0,146,84,63,239,117,161,505,544,145,462,509,45,0,,
1,1774544973136,-4115,-2981,26068,8655960,704938,1431868,0,0,0,340,343,143,416,379,385,199,106,357,155,74,320,0,,
2,1774544973136,-2196,-5422,26336,5892406,130725,350636,0,0,0,170,87,96,253,108,178,521,539,165,465,497,51,0,,
1,1774544973152,-5747,-7121,34663,9748187,455705,1477072,0,0,0,291,297,138,352,305,321,230,109,298,136,65,249,0,,
2,1774544973152,1172,-1258,16908,1926668,-884532,-277332,0,0,0,218,95,85,283,98,165,544,545,166,468,495,48,0,,
1,1774544973168,-8748,-4819,36108,10192897,-130725,1776396,0,0,0,206,244,130,306,223,256,242,114,267,106,72,144,0,,
2,1774544973168,1143,674,9145,90408,-455705,-50090,0,0,0,233,95,100,301,94,177,548,551,171,482,504,46,0,,
1,1774544973184,-13519,2943,30940,10161132,-186924,2670702,0,0,0,176,202,164,271,176,242,258,110,264,103,67,97,0,,
2,1774544973184,363,358,8805,-18325,-51312,85521,0,0,0,241,101,113,305,101,195,554,554,177,495,506,52,0,,
1,1774544973200,-18621,11849,22589,9171530,-450818,4278500,0,0,0,177,194,178,255,164,232,244,99,253,107,72,90,0,,
2,1774544973200,186,-95,10581,240680,-37873,40317,0,0,0,247,118,111,311,121,193,562,561,174,495,508,44,0,,
1,1774544973216,-18430,18458,15462,5788559,-1838704,6427524,0,0,0,165,182,178,242,166,241,241,101,259,98,71,94,0,,
2,1774544973216,416,162,10547,155159,-147829,-20769,0,0,0,268,129,139,310,126,193,568,566,166,494,510,44,0,,
1,1774544973232,-8437,20200,13716,-52534,-2786767,6933320,0,0,0,161,170,189,240,160,250,252,107,267,94,67,95,0,,
2,1774544973232,459,416,10040,46425,-160046,-29321,0,0,0,268,132,132,321,149,204,546,526,181,502,497,55,0,,
1,1774544973248,1670,15075,12476,-5397605,-1682322,5283984,0,0,0,167,167,201,243,155,253,260,109,273,99,69,95,0,,
2,1774544973248,349,435,9949,65973,-108734,-20769,0,0,0,277,151,134,321,175,223,529,508,208,478,468,66,0,,
1,1774544973264,1115,6551,9495,-6438519,624304,2506990,0,0,0,169,170,204,244,162,255,262,116,276,104,83,96,0,,
2,1774544973264,296,363,10150,144164,-63529,-25656,0,0,0,278,162,130,334,203,227,519,472,213,459,457,66,0,,
1,1774544973280,-6417,3067,5762,-4757418,770911,397062,0,0,0,165,174,204,241,169,256,261,129,275,105,100,95,0,,
2,1774544973280,315,320,10179,178372,-39095,-26878,0,0,0,290,166,133,345,214,227,513,437,220,445,421,75,0,,
1,1774544973296,-8432,4312,5766,-4199087,-817337,-755029,0,0,0,165,175,205,238,165,255,261,122,276,103,92,95,0,,
2,1774544973296,339,282,10083,168598,-31764,-15882,0,0,0,286,178,162,340,227,238,491,402,231,422,396,86,0,,
1,1774544973312,-5230,6178,8920,-5178915,-2211332,-1709200,0,0,0,164,165,206,240,159,260,264,111,281,104,77,96,0,,
2,1774544973312,373,263,10054,162490,-39095,-9773,0,0,0,298,186,166,343,236,240,475,359,232,405,375,93,0,,
1,1774544973328,-3158,5398,11629,-6574131,-2371378,-2695137,0,0,0,163,164,207,239,159,260,260,110,280,102,73,96,0,,
2,1774544973328,406,248,10083,178372,-58643,-14660,0,0,0,321,195,155,356,244,242,470,319,230,389,324,98,0,,
1,1774544973344,-3565,3488,12792,-7215540,-2474004,-3137403,0,0,0,166,164,209,241,158,261,262,107,280,109,80,103,0,,
2,1774544973344,411,224,10102,196698,-70860,-26878,0,0,0,342,222,164,371,262,242,463,286,232,378,286,107,0,,
1,1774544973360,-3469,1861,14333,-7238753,-2982244,-2955366,0,0,0,168,166,209,243,159,261,260,107,280,106,73,97,0,,
2,1774544973360,363,196,10117,201585,-68416,-37873,0,0,0,359,245,198,387,282,250,456,246,249,368,278,131,0,,
1,1774544973376,-2048,1009,16621,-7178888,-3404962,-2543642,0,0,0,168,176,209,243,173,261,264,118,282,104,75,99,0,,
2,1774544973376,301,157,10136,201585,-56199,-37873,0,0,0,370,248,223,400,298,280,453,209,274,343,238,168,0,,
1,1774544973392,-196,378,18947,-7191105,-3468492,-2180788,0,0,0,166,167,209,244,158,266,261,110,282,101,69,95,0,,
2,1774544973392,358,124,10203,213802,-47647,-36651,0,0,0,396,268,213,418,324,277,443,186,270,331,203,184,0,,
1,1774544973408,837,-186,20914,-7149566,-3200933,-2065946,0,0,0,163,157,208,245,156,265,262,105,284,109,68,96,0,,
2,1774544973408,445,95,10279,254119,-42760,-40317,0,0,0,416,281,237,426,349,287,417,158,277,294,172,200,0,,
1,1774544973424,698,-363,22924,-7004180,-2932153,-2179567,0,0,0,166,158,210,246,152,265,264,103,286,109,70,99,0,,
2,1774544973424,483,57,10366,332310,-26878,-51312,0,0,0,405,310,273,413,394,316,381,124,289,240,138,231,0,,
1,1774544973440,-497,-899,24938,-6801373,-3016452,-2361605,0,0,0,166,157,209,248,150,264,266,101,283,106,67,99,0,,
2,1774544973440,559,-4,10614,459370,-19547,-81855,0,0,0,431,320,258,416,386,328,355,112,302,227,122,267,0,,
1,1774544973456,-1162,-2440,27183,-6627887,-3214372,-2399478,0,0,0,168,155,204,251,151,262,272,103,281,105,65,96,0,,
2,1774544973456,713,-67,11265,734260,-54977,-147829,0,0,0,452,296,268,440,375,365,354,68,310,300,85,286,0,,
1,1774544973472,-957,-5364,29499,-6583905,-3207042,-2326174,0,0,0,166,155,198,251,152,261,275,107,282,103,64,95,0,,
2,1774544973472,746,-105,11969,1121548,-114842,-226020,0,0,0,469,319,167,441,416,419,357,83,306,228,98,355,0,,
1,1774544973488,-76,-10457,30251,-6702413,-2968805,-2261423,0,0,0,163,164,194,253,162,264,269,109,282,104,65,93,0,,
2,1774544973488,626,-162,12246,1484402,-179594,-272445,0,0,0,476,347,130,443,443,381,296,79,301,188,94,356,0,,
1,1774544973504,1765,-18717,28901,-6593679,-2681698,-2235766,0,0,0,162,187,192,254,203,265,265,121,281,109,77,91,0,,
2,1774544973504,464,-253,12447,1869247,-167377,-291993,0,0,0,502,386,136,452,487,371,260,88,301,170,100,369,0,,
1,1774544973520,4020,-30734,23278,-5536882,-1973094,-2311514,0,0,0,160,205,192,244,234,261,269,140,285,107,92,92,0,,
2,1774544973520,358,-373,12950,2283414,-129503,-294437,0,0,0,532,381,146,435,483,370,237,102,294,162,106,366,0,,
1,1774544973536,5642,-44173,14998,-3656639,-1182635,-2351831,0,0,0,165,177,192,248,173,261,272,123,287,104,85,93,0,,
2,1774544973536,129,-483,13419,2789210,-116064,-266337,0,0,0,535,393,144,425,468,393,226,98,289,170,100,361,0,,
1,1774544973552,8614,-51648,10323,-1463633,-1091005,-2224771,0,0,0,164,165,181,243,161,251,272,135,279,140,117,96,0,,
2,1774544973552,186,-626,14055,3419623,-39095,-224798,0,0,0,536,421,138,412,456,392,223,94,292,173,101,337,0,,
1,1774544973568,11036,-44828,11777,1127657,-390953,-2045176,0,0,0,156,145,114,212,142,211,301,260,256,285,289,86,0,,
2,1774544973568,1387,-832,15199,4191757,25656,-295658,0,0,0,526,404,150,423,435,394,232,91,299,174,93,316,0,,
1,1774544973584,1938,-25671,15994,3511253,1290147,-1381777,0,0,0,144,160,84,223,174,212,354,437,263,368,439,81,0,,
2,1774544973584,2799,-957,16826,5164254,-98960,-554665,0,0,0,491,353,166,437,428,406,223,84,299,168,72,296,0,,
1,1774544973600,-6546,-2962,13596,6196616,2542421,362853,0,0,0,175,139,84,244,144,215,425,504,248,462,516,82,0,,
2,1774544973600,3575,-756,19832,6372546,-503352,-933402,0,0,0,417,316,151,407,419,382,197,73,269,145,65,268,0,,
1,1774544973616,-5206,1531,18592,8861211,2737898,1634675,0,0,0,203,105,111,263,101,205,502,507,255,534,543,116,0,,
2,1774544973616,4824,-2072,26618,8144055,-1032362,-1291369,0,0,0,316,282,112,360,373,337,195,70,217,130,70,236,0,,
1,1774544973632,-2239,-3651,30887,9139765,2043955,1304808,0,0,0,210,96,216,254,81,233,525,452,268,558,558,141,0,,
2,1774544973632,7284,-6322,35434,9878912,-645073,-1558928,0,0,0,233,238,74,313,333,291,198,81,173,123,70,165,0,,
1,1774544973648,-1014,-4527,27149,5068959,1653001,421497,0,0,0,228,110,274,296,89,263,543,415,277,576,573,148,0,,
2,1774544973648,6872,-5379,40789,10818423,631634,-2032959,0,0,0,137,189,55,254,276,205,201,82,138,100,58,90,0,,
1,1774544973664,-775,-1172,13658,1159422,1348790,-4886,0,0,0,257,151,290,324,135,288,561,388,284,597,569,183,0,,
2,1774544973664,7657,2268,40521,11142181,1188743,-2703689,0,0,0,125,114,32,204,165,80,244,81,66,102,41,22,0,,
1,1774544973680,-507,90,8815,227241,723264,-26878,0,0,0,281,187,293,325,184,301,566,371,284,616,557,216,0,,
2,1774544973680,13012,13342,30260,10173349,1469741,-3673743,0,0,0,117,119,50,181,162,96,220,91,88,87,46,39,0,,
1,1774544973696,-320,0,9557,260228,151494,-7330,0,0,0,292,201,296,335,208,305,565,371,282,627,552,227,0,,
2,1774544973696,10954,19698,17870,7626041,2350609,-4438546,0,0,0,110,131,58,178,179,104,219,96,92,85,51,40,0,,
1,1774544973712,-392,-105,11098,335975,-39095,-8552,0,0,0,296,217,288,345,219,305,568,372,288,628,540,239,0,,
2,1774544973712,693,21698,11251,2767219,2295631,-3424510,0,0,0,115,125,63,184,163,109,218,90,100,84,46,37,0,,
1,1774544973728,-440,258,10394,141720,-58643,-8552,0,0,0,299,233,257,338,225,292,565,357,285,616,502,235,0,,
2,1774544973728,-4316,16917,12050,-2437352,-531452,101403,0,0,0,117,133,63,181,159,106,221,93,106,88,46,43,0,,
1,1774544973744,-445,478,9882,59864,-114842,-1221,0,0,0,309,227,292,344,227,296,556,343,289,584,471,252,0,,
2,1774544973744,1296,10217,9748,-4511850,-2938261,2585181,0,0,0,117,126,66,191,163,120,225,93,112,91,48,48,0,,
1,1774544973760,-459,473,9997,135612,-197920,8552,0,0,0,312,251,244,361,251,288,556,310,285,536,415,247,0,,
2,1774544973760,9786,5714,4335,-4434881,-2626720,2880840,0,0,0,118,125,66,192,167,121,228,96,115,93,50,50,0,,
1,1774544973776,-497,411,10160,227241,-251676,19547,0,0,0,318,266,272,363,273,308,528,267,297,516,368,273,0,,
2,1774544973776,8786,5307,3565,-4603480,-149051,1794722,0,0,0,120,128,66,195,169,118,229,98,114,92,52,47,0,,
1,1774544973792,-536,354,10112,284663,-289550,31764,0,0,0,316,272,291,373,290,332,501,238,318,483,319,310,0,,
2,1774544973792,4182,5460,6044,-5302310,1276708,1178969,0,0,0,123,128,56,197,167,105,233,97,96,93,48,36,0,,
1,1774544973808,-564,306,10021,316428,-302989,43982,0,0,0,338,282,271,390,307,331,476,229,316,444,305,330,0,,
2,1774544973808,1024,5144,8777,-6150191,1204626,1255938,0,0,0,124,128,51,201,167,99,232,95,82,94,48,30,0,,
1,1774544973824,-617,239,10011,362853,-305432,61086,0,0,0,363,290,253,396,320,346,469,187,315,433,281,352,0,,
2,1774544973824,449,4326,9992,-6702413,948062,1477072,0,0,0,124,128,59,202,168,113,229,95,100,96,52,42,0,,
1,1774544973840,-660,143,10031,425162,-284663,81855,0,0,0,388,290,254,413,327,357,479,156,324,420,242,374,0,,
2,1774544973840,186,3311,10906,-6950424,1167974,1602910,0,0,0,125,127,66,200,168,128,231,95,126,97,51,56,0,,
1,1774544973856,-655,62,10021,456927,-234572,92851,0,0,0,412,299,257,427,343,366,474,149,331,403,227,396,0,,
2,1774544973856,-832,2732,12423,-7060380,1518610,1626123,0,0,0,125,127,60,202,168,120,235,93,112,95,45,46,0,,
1,1774544973872,-617,9,10050,464257,-194255,95294,0,0,0,437,317,259,433,374,384,440,155,337,387,219,426,0,,
2,1774544973872,-2005,2306,14635,-7217983,1671327,1612684,0,0,0,125,126,50,206,165,107,234,92,87,92,45,31,0,,
1,1774544973888,-598,-33,10112,469144,-199142,89186,0,0,0,461,335,253,441,390,403,418,146,344,368,181,462,0,,
2,1774544973888,-2584,1675,17075,-7445225,1513724,1638340,0,0,0,124,126,55,209,165,112,233,91,86,91,45,25,0,,
1,1774544973904,-684,-86,10189,467922,-205250,92851,0,0,0,481,349,236,444,387,419,404,125,350,351,142,495,0,,
2,1774544973904,-2555,1067,19286,-7564955,1259604,1718974,0,0,0,124,126,48,207,165,108,232,89,82,91,45,31,0,,
1,1774544973920,-890,-153,10308,476474,-153938,124616,0,0,0,502,348,227,450,398,436,370,127,357,329,131,518,0,,
2,1774544973920,-1909,660,22469,-7542963,1045801,1870469,0,0,0,127,126,54,202,163,104,237,88,91,96,45,32,0,,
1,1774544973936,-1076,-220,10461,535117,-51312,183259,0,0,0,519,364,209,469,405,453,353,128,351,312,125,535,0,,
2,1774544973936,-1842,9,26499,-7511198,916297,2106263,0,0,0,127,126,54,200,163,118,241,92,95,96,47,34,0,,
1,1774544973952,-1359,-272,10868,659734,8552,268780,0,0,0,535,372,188,480,399,451,330,138,349,306,141,555,0,,
2,1774544973952,-1990,-2153,31165,-7561289,542448,2500882,0,0,0,126,123,51,198,157,98,242,87,92,90,39,28,0,,
1,1774544973968,-1052,-301,11816,929736,-34208,384845,0,0,0,540,401,166,478,403,449,338,132,341,298,119,569,0,,
2,1774544973968,90,-8595,35190,-7704232,-207694,2798984,0,0,0,122,118,46,192,157,91,239,86,83,85,37,22,0,,
1,1774544973984,-536,-387,12352,1293812,-98960,416610,0,0,0,544,426,170,482,435,450,329,133,342,308,125,571,0,,
2,1774544973984,4106,-18324,36070,-7694458,-973719,2464230,0,0,0,122,121,47,193,158,91,242,90,83,91,43,28,0,,
1,1774544974000,-373,-660,12318,1663996,-129503,366519,0,0,0,551,426,174,486,412,480,309,118,349,282,103,579,0,,
2,1774544974000,9456,-31356,30921,-7127575,-1747074,1106887,0,0,0,123,125,47,192,158,94,241,93,88,92,46,30,0,,
1,1774544974016,-296,-837,12500,2028072,-156381,293215,0,0,0,555,443,179,490,430,470,299,121,348,277,114,568,0,,
2,1774544974016,9375,-42483,20330,-5522221,-1414763,-816115,0,0,0,120,127,47,187,159,90,245,97,88,88,47,27,0,,
1,1774544974032,-315,-837,13089,2464230,-200363,213802,0,0,0,553,450,188,470,423,456,254,127,364,250,104,556,0,,
2,1774544974032,1698,-48532,12873,-3298672,-392175,-1753183,0,0,0,119,130,50,182,164,88,246,106,87,97,58,27,0,,
1,1774544974048,-746,-856,13773,2968805,-217468,175929,0,0,0,553,443,192,490,418,451,222,122,354,242,98,557,0,,
2,1774544974048,-6365,-47839,11701,-373849,-211359,-659734,0,0,0,107,124,41,174,157,73,281,229,71,169,188,23,0,,
1,1774544974064,-1545,-947,14443,3678630,-205250,257785,0,0,0,550,431,188,471,415,462,203,114,353,228,96,548,0,,
2,1774544974064,-3153,-38568,15864,2134363,-1005484,458148,0,0,0,97,117,25,164,149,63,324,393,63,262,368,20,0,,
1,1774544974080,-2215,-1014,15008,4434881,-177150,454483,0,0,0,543,415,179,436,416,478,183,106,370,204,89,532,0,,
2,1774544974080,4163,-10270,16290,5227784,-1887573,378736,0,0,0,102,120,27,164,149,89,347,458,87,309,447,27,0,,
1,1774544974096,-2488,-1024,15754,5316971,-54977,734260,0,0,0,526,395,160,447,426,474,171,100,373,192,83,515,0,,
2,1774544974096,3694,7054,12878,8352971,-607200,10995,0,0,0,117,106,39,190,134,125,400,504,113,351,486,33,0,,
1,1774544974112,-2790,-1158,17793,6418971,243124,998153,0,0,0,455,369,139,452,414,454,180,98,366,183,83,460,0,,
2,1774544974112,167,1119,21847,9134878,1006705,248011,0,0,0,166,95,71,246,115,152,460,536,130,404,512,46,0,,
1,1774544974128,-3790,-3182,23589,7887491,630412,1260825,0,0,0,346,339,146,414,368,419,204,102,359,156,76,358,0,,
2,1774544974128,-641,-4900,27767,6718295,537561,226020,0,0,0,220,102,168,272,98,173,515,555,163,481,519,73,0,,
1,1774544974144,-6097,-7418,31213,8961393,401949,1352455,0,0,0,293,304,139,368,319,352,230,116,318,134,68,278,0,,
2,1774544974144,612,-3977,20296,2671924,-487470,2443,0,0,0,239,123,168,299,134,196,529,548,175,486,501,60,0,,
1,1774544974160,-9662,-6259,33840,9507506,-329867,1696983,0,0,0,222,258,137,309,231,275,241,108,274,119,58,192,0,,
2,1774544974160,1081,-315,9911,-70860,-623082,-63529,0,0,0,251,142,184,308,158,246,540,554,224,503,509,74,0,,
1,1774544974176,-12677,555,31136,9656557,-566882,2615724,0,0,0,168,201,161,253,164,238,256,111,267,103,74,92,0,,
2,1774544974176,492,665,8427,-188146,-134390,10995,0,0,0,271,157,129,335,200,214,550,556,200,503,516,38,0,,
1,1774544974192,-17018,8973,24096,9376781,-86742,4116009,0,0,0,178,200,168,253,158,236,264,106,265,107,71,91,0,,
2,1774544974192,311,234,10184,188146,31764,31764,0,0,0,295,176,173,326,195,219,551,545,214,498,506,53,0,,
1,1774544974208,-19109,14027,17568,7553959,-802676,5740911,0,0,0,170,178,169,244,159,234,255,105,259,115,77,95,0,,
2,1774544974208,483,119,10605,199142,-50090,2443,0,0,0,305,186,154,336,219,250,545,519,236,494,486,65,0,,
1,1774544974224,-14079,17133,13850,3490483,-2627942,7108027,0,0,0,168,176,185,235,163,237,249,111,251,113,81,92,0,,
2,1774544974224,545,335,10040,94073,-107512,-14660,0,0,0,317,191,144,358,227,231,547,449,223,477,437,63,0,,
1,1774544974240,-2258,17257,12486,-1910786,-2862514,6234490,0,0,0,173,185,184,231,169,233,249,118,251,108,86,90,0,,
2,1774544974240,464,358,9978,135612,-79412,-12217,0,0,0,337,197,141,376,246,222,538,405,220,454,383,68,0,,
1,1774544974256,4235,12002,11284,-5841093,-623082,3340211,0,0,0,168,176,200,229,159,242,249,115,257,107,89,93,0,,
2,1774544974256,416,296,10145,205250,-40317,-12217,0,0,0,356,202,154,387,255,232,525,361,230,437,355,83,0,,
1,1774544974272,-985,6207,9538,-6137973,1461189,632856,0,0,0,166,171,199,229,152,243,249,113,261,109,89,92,0,,
2,1774544974272,430,239,10222,239459,-14660,-9773,0,0,0,359,207,175,372,262,236,476,310,242,397,297,107,0,,
1,1774544974288,-7221,3685,7944,-5503895,1299921,-825889,0,0,0,167,172,195,229,153,241,245,117,266,106,86,90,0,,
2,1774544974288,502,215,10155,241902,-8552,-8552,0,0,0,356,214,181,371,277,250,471,268,250,372,245,134,0,,
1,1774544974304,-8322,3924,8222,-5312084,-880867,-1111774,0,0,0,164,171,202,229,154,247,241,117,270,98,83,89,0,,
2,1774544974304,559,162,10088,227241,-14660,-20769,0,0,0,369,223,194,377,282,270,487,240,265,358,229,158,0,,
1,1774544974320,-5178,4211,10318,-5803219,-2827084,-1335351,0,0,0,164,172,192,235,153,248,250,115,267,99,82,83,0,,
2,1774544974320,526,129,10102,205250,-29321,-32986,0,0,0,396,243,206,373,297,272,463,223,272,330,215,171,0,,
1,1774544974336,-2139,3551,12711,-6448293,-3068986,-1777617,0,0,0,168,171,201,240,153,257,260,119,265,108,88,86,0,,
2,1774544974336,473,95,10107,189368,-47647,-36651,0,0,0,411,270,213,381,324,275,447,201,265,307,196,172,0,,
1,1774544974352,-1818,2522,14319,-6816034,-2927266,-2120924,0,0,0,164,171,188,239,156,248,250,116,261,99,89,90,0,,
2,1774544974352,497,95,10117,202807,-57421,-43982,0,0,0,409,276,248,391,328,287,438,167,265,292,181,181,0,,
1,1774544974368,-2541,1416,15759,-6993185,-3224146,-2177123,0,0,0,168,175,178,239,154,244,250,117,263,97,85,86,0,,
2,1774544974368,550,62,10179,232128,-63529,-53756,0,0,0,421,281,257,395,351,282,388,158,261,267,175,191,0,,
1,1774544974384,-1110,339,17640,-7122688,-3921754,-2105041,0,0,0,168,175,181,236,157,244,254,116,263,97,85,87,0,,
2,1774544974384,536,9,10265,271224,-68416,-65973,0,0,0,429,293,276,400,366,305,365,129,272,250,144,206,0,,
1,1774544974400,2019,-703,19913,-7128797,-4037819,-2376265,0,0,0,166,173,181,238,155,245,253,118,263,93,81,84,0,,
2,1774544974400,483,-23,10366,333532,-76969,-73303,0,0,0,435,291,236,400,373,313,343,132,282,234,141,233,0,,
1,1774544974416,3239,-1000,21751,-6990741,-3463605,-2996904,0,0,0,166,172,179,241,153,243,259,119,264,96,82,84,0,,
2,1774544974416,507,-57,10571,433714,-102625,-79412,0,0,0,455,284,238,405,354,324,329,155,278,221,106,262,0,,
1,1774544974432,1282,-741,23426,-6890559,-2886949,-3705508,0,0,0,169,181,183,241,178,244,263,117,271,104,76,87,0,,
2,1774544974432,617,-100,10935,597426,-163711,-91629,0,0,0,456,288,207,435,353,306,324,84,286,234,101,266,0,,
1,1774544974448,-1215,-1052,25565,-6879564,-2764776,-4169766,0,0,0,170,170,184,244,169,245,268,120,274,104,75,88,0,,
2,1774544974448,555,-148,11332,852767,-224798,-116064,0,0,0,466,312,152,448,407,300,318,87,272,243,115,281,0,,
1,1774544974464,-3177,-2627,28681,-6938207,-2985909,-4333478,0,0,0,171,162,178,251,157,246,273,114,273,105,68,86,0,,
2,1774544974464,421,-224,11524,1112996,-222354,-129503,0,0,0,502,348,123,435,451,342,291,97,291,206,120,313,0,,
1,1774544974480,-3460,-6628,30930,-7141014,-3010343,-4217413,0,0,0,167,190,167,251,200,243,276,121,272,108,70,87,0,,
2,1774544974480,488,-378,11758,1414763,-134390,-142942,0,0,0,515,374,108,434,425,339,265,89,316,186,104,317,0,,
1,1774544974496,-3766,-15290,30686,-7264409,-2500882,-3835011,0,0,0,165,201,161,251,213,244,277,126,276,113,77,88,0,,
2,1774544974496,445,-492,12079,1740965,-40317,-166155,0,0,0,525,350,114,429,430,354,244,80,297,174,106,331,0,,
1,1774544974512,-5010,-27092,25307,-6489832,-1802052,-2836858,0,0,0,168,184,164,256,171,249,275,116,281,114,75,87,0,,
2,1774544974512,201,-583,12505,2155132,40317,-162490,0,0,0,527,348,129,422,438,358,232,86,283,171,103,337,0,,
1,1774544974528,-3555,-39334,17793,-4977329,-1742187,-1318247,0,0,0,169,201,167,256,181,251,274,123,285,108,75,89,0,,
2,1774544974528,239,-717,13012,2599842,75747,-116064,0,0,0,517,381,135,411,444,368,220,96,296,167,101,360,0,,
1,1774544974544,5781,-48853,12136,-2921157,-2474004,24434,0,0,0,166,196,175,257,185,258,276,127,289,115,88,93,0,,
2,1774544974544,741,-933,13706,3158173,70860,-105068,0,0,0,517,394,148,399,445,373,207,90,300,166,104,360,0,,
1,1774544974560,15941,-47728,11907,-331088,-1464854,-83077,0,0,0,167,184,173,254,174,255,282,132,288,128,104,93,0,,
2,1774544974560,1474,-1100,14658,3808133,-28099,-207694,0,0,0,527,392,164,391,444,376,194,81,286,167,97,340,0,,
1,1774544974576,10954,-35989,12845,1968207,1397659,-482583,0,0,0,150,163,110,218,158,208,304,256,252,246,314,88,0,,
2,1774544974576,2325,-1215,15697,4643797,-260228,-415388,0,0,0,526,394,174,404,450,398,189,83,279,164,78,329,0,,
1,1774544974592,-3302,-14457,14410,3149621,3033556,346971,0,0,0,150,168,99,223,174,227,346,423,260,331,407,82,0,,
2,1774544974592,2589,-1162,16750,5707924,-626747,-719599,0,0,0,490,370,192,435,434,394,200,76,273,155,66,282,0,,
1,1774544974608,-8777,7599,10839,4753753,3948632,1583362,0,0,0,155,124,90,240,138,216,435,508,255,467,521,96,0,,
2,1774544974608,2206,-1655,19679,6985854,-934623,-927293,0,0,0,389,336,193,408,396,358,197,63,255,128,58,260,0,,
1,1774544974624,-4570,5953,16487,6952868,3692069,1749518,0,0,0,180,106,105,247,106,214,466,518,255,541,553,102,0,,
2,1774544974624,3330,-4522,26465,8356636,-948062,-1032362,0,0,0,315,268,142,352,354,318,196,65,211,123,69,223,0,,
1,1774544974640,-1186,-3431,29724,8122064,2128254,764803,0,0,0,195,98,193,249,87,237,488,459,275,562,562,146,0,,
2,1774544974640,6087,-7049,34481,9542936,-202807,-1253495,0,0,0,251,220,65,314,314,245,204,74,166,134,64,159,0,,
1,1774544974656,-344,-3833,26159,6763499,1345125,306654,0,0,0,228,117,299,264,123,277,499,412,286,572,572,168,0,,
2,1774544974656,7049,-4680,37697,10362717,549778,-1770287,0,0,0,147,182,78,247,268,217,198,84,140,109,61,96,0,,
1,1774544974672,-593,-832,14280,3773925,1084896,241902,0,0,0,286,183,344,305,186,312,512,374,298,584,552,217,0,,
2,1774544974672,8638,2057,33735,10556973,938289,-2461786,0,0,0,107,120,44,158,153,75,214,88,62,86,45,28,0,,
1,1774544974688,-574,-827,10519,1422094,591317,111177,0,0,0,351,257,335,357,261,322,526,334,307,588,495,287,0,,
2,1774544974688,12677,9992,24790,9589362,2081828,-3379306,0,0,0,109,125,50,155,153,76,213,99,72,84,51,43,0,,
1,1774544974704,-449,-808,10399,349414,145385,-6108,0,0,0,404,311,341,387,321,330,527,305,311,578,423,341,0,,
2,1774544974704,11634,15046,15376,7017619,3689626,-4651127,0,0,0,114,124,51,161,154,80,210,93,67,87,53,34,0,,
1,1774544974720,-411,-282,10504,362853,32986,2443,0,0,0,435,340,371,394,329,354,516,277,324,565,373,383,0,,
2,1774544974720,354,16554,12543,1731192,3827681,-4018271,0,0,0,119,124,67,169,155,100,214,89,81,91,51,33,0,,
1,1774544974736,-349,52,10160,388510,13439,35430,0,0,0,462,354,358,408,334,353,517,254,322,563,371,397,0,,
2,1774544974736,-6958,14553,13342,-2725680,1114218,-855211,0,0,0,122,122,65,174,154,95,222,93,81,92,51,32,0,,
1,1774544974752,-311,23,9973,267558,-29321,36651,0,0,0,482,403,355,416,353,358,540,232,333,553,362,420,0,,
2,1774544974752,-2455,9327,11485,-4809952,-2918714,2730567,0,0,0,123,123,58,176,154,90,226,97,82,91,49,31,0,,
1,1774544974768,-339,-9,10136,185703,-119729,23212,0,0,0,487,377,340,423,391,351,517,187,331,520,320,419,0,,
2,1774544974768,6795,5809,6738,-4713436,-3601661,3337767,0,0,0,122,126,59,178,158,91,228,100,80,90,51,31,0,,
1,1774544974784,-354,14,10275,200363,-226020,25656,0,0,0,497,369,376,414,371,359,464,187,336,454,266,444,0,,
2,1774544974784,9212,4886,4876,-4912578,-1993864,2360383,0,0,0,121,128,69,177,162,97,228,101,83,93,54,34,0,,
1,1774544974800,-335,23,10265,268780,-342084,37873,0,0,0,489,374,307,409,394,364,417,203,338,389,251,450,0,,
2,1774544974800,4790,5154,7145,-5891184,-434936,1169196,0,0,0,120,127,64,180,162,95,229,102,84,94,53,33,0,,
1,1774544974816,-363,-4,10246,316428,-416610,40317,0,0,0,493,394,260,416,418,355,370,153,336,360,215,453,0,,
2,1774544974816,1363,4733,9294,-6829473,109955,548556,0,0,0,122,124,50,181,157,82,231,99,81,91,50,27,0,,
1,1774544974832,-473,-57,10294,351858,-427605,42760,0,0,0,498,383,273,421,395,374,357,142,349,336,166,475,0,,
2,1774544974832,186,3311,10165,-7368256,293215,389732,0,0,0,122,123,50,178,153,79,232,96,81,90,47,26,0,,
1,1774544974848,-626,-100,10313,376292,-345749,47647,0,0,0,513,388,258,416,395,380,328,145,342,315,148,487,0,,
2,1774544974848,-287,2053,10504,-7224092,972497,513126,0,0,0,121,126,52,182,159,86,234,99,77,92,50,27,0,,
1,1774544974864,-794,-172,10308,390953,-120951,69638,0,0,0,522,397,233,416,405,380,325,130,335,302,142,495,0,,
2,1774544974864,-1287,1770,11739,-6998072,1650557,780685,0,0,0,122,121,51,184,157,82,235,97,79,92,50,26,0,,
1,1774544974880,-765,-268,10442,464257,78190,107512,0,0,0,523,403,229,427,414,391,328,124,336,296,137,501,0,,
2,1774544974880,-2249,1588,14017,-6991963,1998751,1125213,0,0,0,123,124,56,189,159,91,239,99,91,96,49,26,0,,
1,1774544974896,-689,-354,10509,583987,124616,140499,0,0,0,523,414,226,437,432,396,313,139,336,293,143,512,0,,
2,1774544974896,-2761,689,16176,-7112914,2024407,1291369,0,0,0,119,124,44,189,159,84,235,97,86,92,46,26,0,,
1,1774544974912,-650,-435,10413,687834,57421,178372,0,0,0,523,419,218,435,435,393,309,138,332,289,145,528,0,,
2,1774544974912,-3158,-301,18348,-7167892,1844813,1312138,0,0,0,121,125,48,189,159,87,235,96,86,93,49,30,0,,
1,1774544974928,-670,-521,10275,719599,24434,219911,0,0,0,533,417,219,435,409,409,310,121,330,281,130,533,0,,
2,1774544974928,-3316,-291,20847,-7086036,1567480,1398881,0,0,0,126,126,49,189,160,91,233,97,79,97,50,29,0,,
1,1774544974944,-670,-622,10256,742812,51312,259006,0,0,0,541,431,201,446,418,419,309,128,330,283,138,542,0,,
2,1774544974944,-3302,-425,23689,-7059158,1266934,1568701,0,0,0,123,130,49,191,170,91,236,99,80,112,49,29,0,,
1,1774544974960,-569,-713,10476,801455,109955,284663,0,0,0,551,451,188,452,411,420,303,116,331,267,126,545,0,,
2,1774544974960,-3058,-1622,26747,-7119023,811229,1800830,0,0,0,120,125,46,191,165,92,237,96,83,95,41,28,0,,
1,1774544974976,-454,-794,10926,919963,156381,296880,0,0,0,551,442,187,462,414,424,322,116,335,272,122,547,0,,
2,1774544974976,-1938,-4197,29174,-7200879,332310,2004859,0,0,0,122,127,48,192,165,90,240,97,83,92,43,27,0,,
1,1774544974992,-311,-899,11304,1105666,157603,298102,0,0,0,561,444,202,470,415,417,297,125,336,259,122,550,0,,
2,1774544974992,-325,-9112,31935,-7243640,-51312,2109928,0,0,0,124,121,50,195,155,93,240,92,90,91,41,28,0,,
1,1774544975008,95,-1115,11414,1352455,87964,256563,0,0,0,559,446,196,456,437,421,276,141,330,239,129,549,0,,
2,1774544975008,2349,-16960,31390,-6934542,-635299,1964542,0,0,0,124,123,52,202,157,96,241,95,90,95,47,32,0,,
1,1774544975024,287,-1234,11562,1620014,-14660,166155,0,0,0,561,459,204,445,444,429,262,133,335,238,120,545,0,,
2,1774544975024,6312,-26001,25728,-6057339,-1072679,1490511,0,0,0,125,129,50,207,166,96,242,100,87,98,52,30,0,,
1,1774544975040,-186,-1282,12045,1891238,-70860,96516,0,0,0,566,466,214,440,446,431,259,139,335,242,118,545,0,,
2,1774544975040,6633,-33668,17319,-4422664,-378736,665843,0,0,0,126,128,48,207,169,98,244,100,92,98,52,29,0,,
1,1774544975056,-713,-1426,12648,2269975,-26878,120951,0,0,0,566,459,213,423,426,427,227,125,331,231,108,544,0,,
2,1774544975056,1095,-38492,12208,-2460565,671951,167377,0,0,0,126,126,51,209,169,106,247,99,98,100,53,35,0,,
1,1774544975072,-847,-1593,13165,2742784,52534,191811,0,0,0,569,452,215,413,412,424,196,106,333,218,97,540,0,,
2,1774544975072,-5159,-39258,11859,-592539,795346,427605,0,0,0,127,130,50,212,171,105,258,128,96,124,92,37,0,,
1,1774544975088,-1014,-1742,13778,3331659,158824,287106,0,0,0,568,436,210,412,414,416,178,102,333,206,90,535,0,,
2,1774544975088,-4321,-36070,12845,993266,-164933,747699,0,0,0,126,139,33,209,179,84,289,246,73,204,224,27,0,,
1,1774544975104,-1684,-1895,14481,4002389,299323,442266,0,0,0,561,422,203,421,433,410,163,100,335,198,84,527,0,,
2,1774544975104,2215,-22029,17286,2653598,-912632,21991,0,0,0,91,126,23,167,181,83,312,417,75,275,364,25,0,,
1,1774544975120,-2392,-1971,15017,4858822,552222,741590,0,0,0,552,430,199,438,454,420,154,95,346,190,81,513,0,,
2,1774544975120,5053,923,16305,4803844,-855211,-921184,0,0,0,87,134,27,153,178,97,307,446,87,269,434,31,0,,
1,1774544975136,-2502,-1914,15740,5776341,877202,1061683,0,0,0,522,428,173,441,448,436,167,100,352,176,77,487,0,,
2,1774544975136,4728,7106,12601,7275404,244346,-766025,0,0,0,124,126,42,188,151,118,361,493,106,341,488,32,0,,
1,1774544975152,-2335,-2546,18181,6878342,1222952,1334129,0,0,0,449,387,167,433,456,454,208,113,364,172,82,441,0,,
2,1774544975152,2857,86,19052,7941248,1021366,136833,0,0,0,149,94,42,240,127,134,457,517,116,484,518,44,0,,
1,1774544975168,-3469,-6637,23957,8016995,1144761,1464854,0,0,0,355,362,160,400,397,389,202,123,347,166,90,399,0,,
2,1774544975168,-205,-3665,24613,6238155,537561,405614,0,0,0,201,96,76,276,115,174,493,526,147,519,520,54,0,,
1,1774544975184,-5939,-9183,28480,8709716,357967,1604132,0,0,0,306,301,163,341,319,319,221,123,296,141,75,311,0,,
2,1774544975184,-296,-2244,20339,3617543,-237015,57421,0,0,0,216,99,84,283,108,172,505,554,150,540,540,47,0,,
1,1774544975200,-8671,-5422,29226,8967501,-549778,2200336,0,0,0,206,257,219,287,232,315,237,126,287,132,84,212,0,,
2,1774544975200,760,-181,12165,1194852,-416610,-97738,0,0,0,251,114,134,315,116,182,547,556,164,536,536,68,0,,
1,1774544975216,-12256,540,27197,9114109,-648738,3252246,0,0,0,169,195,197,239,175,255,249,120,269,99,72,119,0,,
2,1774544975216,914,167,9088,103847,-211359,-2443,0,0,0,255,136,150,304,134,204,560,556,180,537,534,73,0,,
1,1774544975232,-17420,6671,21555,8699942,-417831,4665788,0,0,0,163,181,199,232,162,242,248,109,263,97,71,98,0,,
2,1774544975232,469,-23,10112,90408,-48869,72082,0,0,0,259,151,149,301,154,207,553,560,168,538,527,61,0,,
1,1774544975248,-18789,9944,15381,6630331,-1242499,6246707,0,0,0,160,175,203,230,162,245,241,105,258,96,72,101,0,,
2,1774544975248,358,201,10600,174707,-64751,28099,0,0,0,273,169,145,312,179,205,561,558,168,542,521,58,0,,
1,1774544975264,-8667,12955,11562,1789835,-2794097,6295577,0,0,0,163,172,201,232,161,244,243,107,255,95,72,100,0,,
2,1774544975264,464,445,10155,114842,-95294,-15882,0,0,0,279,175,144,314,190,204,569,529,184,535,495,57,0,,
1,1774544975280,1234,13318,9892,-3226590,-2362826,3819129,0,0,0,157,166,222,231,157,261,245,106,270,93,71,107,0,,
2,1774544975280,445,449,10031,96516,-69638,-17104,0,0,0,277,179,161,324,207,218,565,491,201,498,453,59,0,,
1,1774544975296,473,8202,10437,-6249151,-458148,371406,0,0,0,149,160,245,222,152,280,242,104,285,104,70,120,0,,
2,1774544975296,397,421,10102,130725,-21991,-17104,0,0,0,278,189,187,336,229,238,548,465,213,443,415,65,0,,
1,1774544975312,-4441,3795,10528,-6958976,141720,-1547932,0,0,0,160,165,235,228,152,270,249,107,282,116,70,115,0,,
2,1774544975312,406,411,10160,186924,15882,-25656,0,0,0,286,197,181,339,232,237,525,430,217,403,374,68,0,,
1,1774544975328,-6532,2790,10011,-6434854,-1142317,-1727526,0,0,0,163,165,227,236,151,268,254,109,280,96,71,106,0,,
2,1774544975328,440,368,10093,216246,20769,-26878,0,0,0,296,208,150,349,233,224,514,363,219,379,325,77,0,,
1,1774544975344,-4474,3383,10466,-6493497,-2412917,-1481959,0,0,0,158,164,225,231,153,270,257,108,280,102,77,110,0,,
2,1774544975344,478,325,10069,226020,10995,-25656,0,0,0,305,221,163,363,261,239,512,319,241,364,298,116,0,,
1,1774544975360,-1306,3594,12189,-7287622,-2715906,-1392772,0,0,0,160,159,245,229,148,280,265,110,287,97,71,100,0,,
2,1774544975360,526,282,10093,238237,0,-28099,0,0,0,327,204,176,377,268,267,484,312,262,362,266,149,0,,
1,1774544975376,-1215,2498,13074,-7611380,-2561968,-1490511,0,0,0,167,167,198,241,159,250,269,115,269,103,72,95,0,,
2,1774544975376,545,234,10093,250454,-24434,-36651,0,0,0,326,217,180,390,275,286,472,291,266,330,241,149,0,,
1,1774544975392,-1689,1268,13433,-7393912,-2740341,-1541823,0,0,0,173,165,192,253,160,250,274,115,269,112,83,98,0,,
2,1774544975392,516,172,10059,232128,-48869,-42760,0,0,0,351,230,183,392,284,271,476,244,268,310,234,168,0,,
1,1774544975408,-1143,430,14304,-6801373,-3236364,-1606575,0,0,0,166,166,195,242,161,251,264,114,270,103,75,99,0,,
2,1774544975408,459,143,10064,184481,-53756,-41538,0,0,0,375,238,242,413,300,294,460,230,305,316,230,191,0,,
1,1774544975424,617,492,16472,-6403089,-3527135,-1921782,0,0,0,163,165,196,243,160,252,263,112,270,102,77,99,0,,
2,1774544975424,440,143,10126,168598,-51312,-37873,0,0,0,365,282,208,410,325,294,446,206,289,303,199,187,0,,
1,1774544975440,1483,631,18836,-6293133,-3420845,-2526538,0,0,0,164,164,195,246,160,253,265,113,269,105,80,99,0,,
2,1774544975440,421,129,10174,206472,-46425,-35430,0,0,0,374,274,193,424,352,311,427,185,307,283,198,226,0,,
1,1774544975456,-124,134,20583,-6320011,-3171612,-3180164,0,0,0,166,166,196,247,160,254,267,111,272,106,79,101,0,,
2,1774544975456,296,71,10174,254119,-31764,-35430,0,0,0,392,276,206,434,362,323,402,207,309,270,154,246,0,,
1,1774544975472,-2100,-1009,22187,-6298020,-3211929,-3445279,0,0,0,166,167,196,247,160,254,270,110,275,115,76,104,0,,
2,1774544975472,368,28,10270,320093,-4886,-50090,0,0,0,405,274,239,438,362,359,400,132,316,255,121,275,0,,
1,1774544975488,-2684,-2737,24355,-6208834,-3376863,-3204599,0,0,0,165,165,194,250,162,255,272,110,274,117,73,102,0,,
2,1774544975488,626,-4,10533,428827,12217,-83077,0,0,0,420,302,214,449,376,371,397,93,323,242,111,319,0,,
1,1774544975504,-1976,-5029,26676,-6117204,-3060434,-2753780,0,0,0,166,165,194,252,161,258,267,106,278,103,69,97,0,,
2,1774544975504,933,-71,11021,663399,8552,-151494,0,0,0,440,331,163,464,425,390,392,95,340,232,115,340,0,,
1,1774544975520,-1794,-7982,27681,-6072000,-2718350,-2434908,0,0,0,167,168,192,251,161,258,263,107,283,100,66,96,0,,
2,1774544975520,880,-81,11658,961501,-7330,-230907,0,0,0,451,344,131,476,464,428,378,96,347,216,113,362,0,,
1,1774544975536,-258,-14022,26992,-5905845,-2695137,-2251649,0,0,0,163,171,182,253,166,254,267,112,279,103,71,95,0,,
2,1774544975536,536,-100,12213,1352455,-28099,-257785,0,0,0,466,349,121,479,474,438,327,94,344,196,107,385,0,,
1,1774544975552,2761,-22842,24072,-5329188,-2568077,-2306627,0,0,0,158,178,175,251,167,254,265,114,280,110,79,98,0,,
2,1774544975552,392,-220,12543,1795943,9773,-233350,0,0,0,483,362,116,472,480,420,271,94,346,172,102,384,0,,
1,1774544975568,4264,-34161,18109,-4183205,-1982868,-2395813,0,0,0,158,196,175,252,175,255,262,115,276,107,82,97,0,,
2,1774544975568,430,-339,12979,2277305,118507,-200363,0,0,0,489,375,118,458,484,411,243,90,343,156,101,396,0,,
1,1774544975584,5991,-45235,12275,-2386039,-1850921,-1965764,0,0,0,158,186,175,250,170,255,262,114,277,106,85,101,0,,
2,1774544975584,507,-445,13673,2864957,227241,-182037,0,0,0,501,376,128,446,481,409,215,83,329,159,108,427,0,,
1,1774544975600,11141,-46575,10748,-40317,-1736079,-1367116,0,0,0,150,185,171,235,176,242,261,138,268,140,151,100,0,,
2,1774544975600,1239,-583,14611,3536909,233350,-222354,0,0,0,507,389,119,454,478,407,203,89,324,154,107,374,0,,
1,1774544975616,12701,-33596,13515,2299296,14660,-1080009,0,0,0,140,177,102,230,177,218,306,301,249,279,328,86,0,,
2,1774544975616,2053,-713,15376,4260174,117286,-361632,0,0,0,489,395,118,419,456,399,201,81,320,151,94,357,0,,
1,1774544975632,1775,-13093,13117,4505742,2614503,-376292,0,0,0,164,178,90,243,191,224,345,420,261,360,416,85,0,,
2,1774544975632,2684,-737,16740,5270545,-134390,-634078,0,0,0,459,349,158,442,437,386,207,79,314,154,71,292,0,,
1,1774544975648,-3622,1038,10394,6565579,3870442,752585,0,0,0,156,132,92,234,150,220,399,483,256,419,496,81,0,,
2,1774544975648,3163,-780,19947,6576575,-475253,-919963,0,0,0,414,285,159,447,403,390,211,69,304,149,60,262,0,,
1,1774544975664,-2747,311,19502,7369478,2667037,993266,0,0,0,182,118,144,231,113,218,462,488,249,516,553,90,0,,
2,1774544975664,3737,-2258,25192,8123285,-698829,-1138652,0,0,0,314,264,100,393,390,310,206,87,229,154,77,182,0,,
1,1774544975680,-1182,-3273,31232,5929058,1488067,500909,0,0,0,207,124,210,237,102,228,517,450,254,570,570,116,0,,
2,1774544975680,5800,-6073,33476,9585697,62308,-1237612,0,0,0,218,226,67,326,319,256,193,74,182,121,60,130,0,,
1,1774544975696,-995,-2498,24489,2613281,1445307,10995,0,0,0,219,129,254,250,99,245,548,420,268,572,566,144,0,,
2,1774544975696,6489,-5340,38200,10433578,1112996,-1572367,0,0,0,127,197,64,245,284,209,191,85,157,90,58,92,0,,
1,1774544975712,-531,186,11127,849102,1109331,-145385,0,0,0,248,153,284,272,113,260,556,413,276,576,550,163,0,,
2,1774544975712,8059,1828,35563,10589959,1463633,-2265088,0,0,0,105,137,49,186,193,114,216,92,95,85,49,41,0,,
1,1774544975728,-248,842,7523,428827,441044,-109955,0,0,0,274,181,323,289,146,273,561,393,275,585,531,176,0,,
2,1774544975728,12294,9935,28829,10096380,2065946,-3169168,0,0,0,112,123,43,180,169,82,221,99,75,87,52,28,0,,
1,1774544975744,-339,387,10074,422718,81855,-35430,0,0,0,284,184,379,299,168,297,562,375,294,585,518,190,0,,
2,1774544975744,12562,16281,18425,8122064,3624874,-4520402,0,0,0,119,124,47,180,160,80,217,96,74,86,49,25,0,,
1,1774544975760,-478,387,10921,280998,-17104,-7330,0,0,0,291,201,363,311,192,292,571,377,292,577,496,172,0,,
2,1774544975760,1995,19114,12055,3407406,3922976,-4422664,0,0,0,121,123,48,184,150,81,217,91,74,85,46,25,0,,
1,1774544975776,-497,679,10136,172263,-32986,0,0,0,0,302,234,360,333,246,296,563,354,289,561,468,180,0,,
2,1774544975776,-6733,17492,11418,-1936442,1557706,-1924225,0,0,0,121,121,48,190,149,86,222,92,75,88,47,28,0,,
1,1774544975792,-435,765,9877,200363,-102625,9773,0,0,0,311,245,382,349,245,293,559,324,295,540,399,201,0,,
2,1774544975792,-4010,11069,11366,-5026199,-2400700,1573588,0,0,0,122,121,52,193,152,93,228,94,79,91,46,29,0,,
1,1774544975808,-440,741,10088,268780,-183259,21991,0,0,0,324,265,368,366,269,282,568,263,293,526,355,207,0,,
2,1774544975808,5321,6441,6838,-4999321,-3514918,2680476,0,0,0,121,123,54,192,154,94,231,97,83,90,44,31,0,,
1,1774544975824,-516,665,10212,348193,-243124,32986,0,0,0,329,284,348,356,290,304,546,272,305,490,330,242,0,,
2,1774544975824,9006,5005,3895,-4880813,-2335948,2299296,0,0,0,120,125,51,190,158,90,233,98,84,91,50,31,0,,
1,1774544975840,-555,555,10150,433714,-290771,46425,0,0,0,347,307,358,372,340,319,507,233,309,449,287,265,0,,
2,1774544975840,6082,4982,4857,-5379279,-431270,1409876,0,0,0,124,129,54,193,162,92,233,97,83,94,52,31,0,,
1,1774544975856,-564,449,10021,526565,-327423,58643,0,0,0,370,318,359,383,347,335,487,195,334,417,257,299,0,,
2,1774544975856,1842,4675,7681,-6112317,509461,896750,0,0,0,127,127,56,195,162,90,234,101,85,92,52,32,0,,
1,1774544975872,-588,354,9973,577878,-317649,68416,0,0,0,398,323,347,377,344,345,470,183,358,385,237,335,0,,
2,1774544975872,789,4044,9069,-6454402,469144,897971,0,0,0,124,126,56,195,164,95,232,104,91,93,51,32,0,,
1,1774544975888,-612,263,9983,583987,-271224,78190,0,0,0,421,334,320,379,364,349,449,187,360,368,238,355,0,,
2,1774544975888,784,3426,9791,-6588792,762359,976162,0,0,0,123,127,58,197,166,104,237,99,94,94,50,35,0,,
1,1774544975904,-588,177,10011,553443,-223576,85521,0,0,0,433,347,295,392,378,359,418,174,362,361,231,379,0,,
2,1774544975904,-282,2866,11232,-6691417,1171639,1091005,0,0,0,122,125,66,197,166,110,237,102,101,93,50,39,0,,
1,1774544975920,-569,100,10021,504574,-210137,76969,0,0,0,447,355,298,407,382,378,389,141,358,347,180,415,0,,
2,1774544975920,-1923,1966,13457,-6816034,1254717,1353677,0,0,0,122,128,74,196,164,110,236,101,99,94,52,41,0,,
1,1774544975936,-617,52,10069,461814,-196698,69638,0,0,0,467,357,310,439,384,403,409,139,338,352,161,434,0,,
2,1774544975936,-1627,1186,15467,-6935763,1062905,1694540,0,0,0,127,132,72,196,163,109,233,96,95,101,51,42,0,,
1,1774544975952,-689,0,10136,432492,-146607,73303,0,0,0,485,360,326,436,396,415,371,116,349,333,157,453,0,,
2,1774544975952,-823,703,16984,-6963863,993266,1813048,0,0,0,127,129,71,197,165,105,233,94,95,96,49,41,0,,
1,1774544975968,-799,-43,10241,426383,-78190,95294,0,0,0,507,379,328,455,431,429,376,107,357,332,170,479,0,,
2,1774544975968,-866,167,19286,-6816034,869872,1803274,0,0,0,127,129,73,197,163,104,233,95,93,91,47,36,0,,
1,1774544975984,-928,-86,10485,478918,14660,139277,0,0,0,529,371,255,487,415,426,350,122,360,310,148,494,0,,
2,1774544975984,-1005,-291,22440,-6632774,601091,1951103,0,0,0,128,130,67,198,163,102,234,93,91,92,43,35,0,,
1,1774544976000,-961,-157,10830,631634,128281,199142,0,0,0,550,400,236,493,424,451,339,120,360,285,132,545,0,,
2,1774544976000,-311,-1292,26723,-6663318,250454,2399478,0,0,0,127,128,64,200,159,106,241,88,94,95,41,34,0,,
1,1774544976016,-880,-201,11265,853989,171042,260228,0,0,0,559,411,219,498,429,450,323,124,369,273,126,548,0,,
2,1774544976016,1732,-5771,31227,-7184996,25656,2934596,0,0,0,125,125,67,197,156,116,239,84,103,91,40,35,0,,
1,1774544976032,-770,-272,11825,1170417,75747,311541,0,0,0,558,430,179,493,463,453,307,126,347,254,116,562,0,,
2,1774544976032,3685,-14859,34161,-7674910,-81855,3050661,0,0,0,125,122,65,196,157,121,236,86,108,86,40,37,0,,
1,1774544976048,-717,-397,12237,1501506,-41538,344527,0,0,0,562,445,175,508,468,447,321,117,346,258,117,565,0,,
2,1774544976048,5206,-28135,31883,-7283957,-587652,2384817,0,0,0,126,121,60,202,157,119,243,88,104,91,43,38,0,,
1,1774544976064,-459,-502,12653,1885130,-133168,349414,0,0,0,564,436,178,497,452,444,291,116,348,248,109,563,0,,
2,1774544976064,7867,-41119,23761,-5944940,-1288925,1148426,0,0,0,127,121,61,204,157,121,247,87,104,95,44,40,0,,
1,1774544976080,-382,-531,13419,2394591,-158824,293215,0,0,0,560,432,183,475,439,449,249,124,350,237,102,560,0,,
2,1774544976080,9107,-49207,13204,-3865555,-1043357,-354301,0,0,0,130,123,62,211,160,127,254,103,108,113,65,41,0,,
1,1774544976096,-631,-622,14012,2992017,-128281,251676,0,0,0,558,443,190,459,438,446,223,123,353,233,100,556,0,,
2,1774544976096,1708,-48973,8892,-1108109,575435,-1062905,0,0,0,137,124,46,218,164,122,296,208,99,208,196,43,0,,
1,1774544976112,-985,-775,14204,3583335,-94073,276111,0,0,0,559,444,191,441,430,440,197,110,357,222,94,551,0,,
2,1774544976112,-3268,-40569,14601,1193630,761138,-265115,0,0,0,111,132,28,162,170,97,308,408,85,241,376,31,0,,
1,1774544976128,-1598,-837,14663,4294382,-96516,408057,0,0,0,552,430,193,443,410,450,188,104,375,220,89,540,0,,
2,1774544976128,1282,-13318,15721,4405560,-500909,406836,0,0,0,119,124,38,185,161,130,356,451,112,321,438,39,0,,
1,1774544976144,-2565,-851,15592,5191132,-39095,680503,0,0,0,535,425,175,466,424,438,195,104,384,229,83,509,0,,
2,1774544976144,3484,6039,12959,7204544,-690277,394618,0,0,0,128,121,41,230,152,138,415,483,116,351,473,42,0,,
1,1774544976160,-3335,-799,17300,6388428,268780,1093448,0,0,0,487,408,138,463,460,417,200,109,383,202,75,468,0,,
2,1774544976160,880,2211,19588,7704232,427605,268780,0,0,0,187,113,46,284,137,153,483,499,131,439,476,35,0,,
1,1774544976176,-3488,-1914,21148,7678576,638965,1422094,0,0,0,368,386,142,448,401,428,208,121,360,178,85,386,0,,
2,1774544976176,-751,-3876,25283,6199060,488692,149051,0,0,0,215,114,71,296,123,164,523,523,141,465,487,41,0,,
1,1774544976192,-3699,-6575,28925,8886867,571769,1477072,0,0,0,306,322,135,394,352,369,221,117,317,147,77,299,0,,
2,1774544976192,186,-3646,20468,3304780,-311541,2443,0,0,0,232,114,96,305,115,182,529,528,168,475,486,43,0,,
1,1774544976208,-6293,-6829,31806,9276599,-327423,1489289,0,0,0,254,279,133,331,263,297,231,106,279,131,65,234,0,,
2,1774544976208,985,-866,12108,844215,-538783,-26878,0,0,0,250,127,170,334,127,215,531,530,205,487,489,72,0,,
1,1774544976224,-9676,-1545,29490,9345016,-747699,2051285,0,0,0,194,232,171,298,215,259,257,112,264,109,60,139,0,,
2,1774544976224,751,311,8805,-86742,-144164,12217,0,0,0,253,140,168,338,141,228,536,535,222,483,489,68,0,,
1,1774544976240,-15142,5417,23756,9458637,-328645,3301115,0,0,0,167,203,187,258,177,251,257,112,269,90,71,107,0,,
2,1774544976240,507,110,9877,63529,10995,18325,0,0,0,253,145,136,334,148,232,542,542,214,478,489,58,0,,
1,1774544976256,-20090,10519,17563,8670621,-988379,5167919,0,0,0,158,185,194,239,164,253,246,108,264,94,75,101,0,,
2,1774544976256,483,86,10543,173485,1221,2443,0,0,0,259,153,126,340,155,229,554,538,206,485,489,62,0,,
1,1774544976272,-17386,13395,14075,6311459,-2773328,6925990,0,0,0,156,172,202,230,156,254,239,104,256,98,74,99,0,,
2,1774544976272,588,320,10126,116064,-67195,-14660,0,0,0,259,167,133,347,179,231,557,528,222,480,480,70,0,,
1,1774544976288,-5149,16721,10653,1295034,-3795916,7095810,0,0,0,155,173,207,222,166,250,239,109,254,97,76,102,0,,
2,1774544976288,536,335,9964,109955,-73303,-20769,0,0,0,254,196,150,354,215,242,539,514,239,448,465,75,0,,
1,1774544976304,4862,15056,8073,-4118453,-2153910,4499633,0,0,0,155,178,206,220,180,246,246,117,256,100,80,104,0,,
2,1774544976304,469,268,10083,151494,-57421,-21991,0,0,0,259,219,156,366,236,260,518,474,238,421,443,75,0,,
1,1774544976320,3129,8322,8619,-6860016,667064,1022588,0,0,0,158,167,201,224,162,246,250,111,257,98,77,101,0,,
2,1774544976320,464,224,10150,188146,-34208,-21991,0,0,0,266,195,146,375,234,297,514,421,247,408,407,93,0,,
1,1774544976336,-3957,3474,9806,-7275404,1412320,-998153,0,0,0,154,166,206,227,161,255,249,108,261,89,70,99,0,,
2,1774544976336,469,196,10112,206472,-19547,-18325,0,0,0,254,195,187,374,239,272,531,366,245,362,368,115,0,,
1,1774544976352,-7513,2158,9667,-6985854,223576,-1490511,0,0,0,154,166,206,229,160,259,248,108,266,92,74,103,0,,
2,1774544976352,488,172,10059,212581,-13439,-14660,0,0,0,254,180,205,384,240,294,524,330,268,368,333,147,0,,
1,1774544976368,-6738,2053,9394,-6741508,-1455080,-1314581,0,0,0,159,169,209,229,167,263,248,113,270,90,71,102,0,,
2,1774544976368,531,138,10064,213802,-14660,-15882,0,0,0,268,186,169,374,241,263,524,281,252,352,264,137,0,,
1,1774544976384,-4436,2249,10351,-6842912,-2433687,-1180191,0,0,0,153,163,215,231,157,272,249,108,275,93,67,100,0,,
2,1774544976384,569,95,10069,216246,-26878,-26878,0,0,0,269,197,167,404,264,272,523,268,277,335,265,151,0,,
1,1774544976400,-2254,2335,12467,-7222870,-2761110,-1260825,0,0,0,154,160,210,231,154,263,252,108,275,100,74,101,0,,
2,1774544976400,550,52,10074,221133,-43982,-37873,0,0,0,305,203,191,413,282,305,515,242,288,333,222,160,0,,
1,1774544976416,-1990,1009,13898,-7239974,-2985909,-1535715,0,0,0,156,164,220,231,155,270,256,108,280,99,76,108,0,,
2,1774544976416,478,19,10088,215024,-46425,-37873,0,0,0,306,220,172,410,305,305,490,224,299,308,200,178,0,,
